frame,id,timestamp(s),accX,accY,accZ,gyrX,gyrY,gyrZ,magX,magY,magZ,eulerRoll,eulerPitch,eulerYaw,quatW,quatX,quatY,quatZ,
1,1,71.437,-0.055,-0.018,0.984,0.0,0.0,0.0,17,-11,-15,3.03,-1.11,-0.17,1.0,-0.01,0.026,-0.002,
2,1,71.447,-0.051,-0.02,0.988,0.0,0.0,0.0,17,-11,-15,3.04,-1.11,-0.17,1.0,-0.01,0.027,-0.002,
3,1,71.457,-0.052,-0.021,0.986,0.0,0.0,0.0,16,-12,-16,3.04,-1.11,-0.17,1.0,-0.01,0.027,-0.002,
4,1,71.467,-0.052,-0.019,0.984,0.0,0.0,0.0,17,-12,-15,3.03,-1.11,-0.17,1.0,-0.01,0.026,-0.002,
5,1,71.477,-0.049,-0.019,0.983,0.0,0.0,0.0,16,-12,-16,3.04,-1.11,-0.17,1.0,-0.01,0.027,-0.002,
6,1,71.487,-0.051,-0.024,0.987,0.0,0.0,0.0,17,-12,-16,3.04,-1.11,-0.17,1.0,-0.01,0.027,-0.002,
7,1,71.497,-0.052,-0.021,0.987,0.0,0.0,0.0,17,-12,-16,3.04,-1.11,-0.17,1.0,-0.01,0.027,-0.002,
8,1,71.507,-0.054,-0.016,0.983,0.0,0.0,0.0,16,-11,-15,3.04,-1.12,-0.17,1.0,-0.01,0.027,-0.002,
9,1,71.517,-0.052,-0.021,0.985,0.0,0.0,0.0,17,-12,-15,3.04,-1.11,-0.17,1.0,-0.01,0.027,-0.002,
10,1,71.527,-0.051,-0.02,0.987,0.0,0.0,0.0,16,-12,-15,3.04,-1.11,-0.17,1.0,-0.01,0.027,-0.002,
11,1,71.537,-0.051,-0.019,0.987,0.0,0.0,0.0,16,-11,-15,3.04,-1.11,-0.17,1.0,-0.01,0.027,-0.002,
12,1,71.547,-0.052,-0.016,0.984,0.0,0.0,0.0,16,-11,-15,3.04,-1.11,-0.17,1.0,-0.01,0.027,-0.002,
13,1,71.557,-0.053,-0.021,0.986,0.0,0.0,0.0,16,-11,-15,3.04,-1.11,-0.17,1.0,-0.01,0.027,-0.002,
14,1,71.567,-0.054,-0.021,0.987,0.0,0.0,0.0,16,-12,-15,3.04,-1.11,-0.17,1.0,-0.01,0.027,-0.002,
15,1,71.577,-0.051,-0.018,0.983,0.0,0.0,0.0,17,-12,-15,3.04,-1.11,-0.17,1.0,-0.01,0.027,-0.002,
16,1,71.587,-0.055,-0.016,0.986,0.0,0.0,0.0,17,-11,-15,3.04,-1.11,-0.17,1.0,-0.01,0.027,-0.002,
17,1,71.597,-0.054,-0.018,0.984,0.0,0.0,0.0,17,-11,-15,3.04,-1.11,-0.17,1.0,-0.01,0.027,-0.002,
18,1,71.607,-0.053,-0.019,0.989,0.0,0.0,0.0,17,-12,-15,3.04,-1.11,-0.17,1.0,-0.01,0.027,-0.002,
19,1,71.617,-0.052,-0.02,0.986,0.0,0.0,0.0,17,-12,-15,3.04,-1.11,-0.17,1.0,-0.01,0.027,-0.002,
20,1,71.627,-0.055,-0.02,0.982,0.0,0.0,0.0,17,-11,-15,3.04,-1.11,-0.17,1.0,-0.01,0.026,-0.002,
21,1,71.637,-0.054,-0.02,0.986,0.0,0.0,0.0,17,-11,-15,3.04,-1.11,-0.17,1.0,-0.01,0.027,-0.002,
22,1,71.647,-0.052,-0.02,0.984,0.0,0.0,0.0,17,-11,-15,3.04,-1.11,-0.17,1.0,-0.01,0.027,-0.002,
23,1,71.657,-0.055,-0.021,0.987,0.0,0.0,0.0,17,-12,-16,3.04,-1.11,-0.17,1.0,-0.01,0.027,-0.002,
24,1,71.667,-0.053,-0.019,0.982,0.0,0.0,0.0,17,-12,-15,3.04,-1.11,-0.17,1.0,-0.01,0.027,-0.002,
25,1,71.677,-0.052,-0.02,0.987,0.0,0.0,0.0,17,-12,-15,3.04,-1.11,-0.17,1.0,-0.01,0.027,-0.002,
26,1,71.687,-0.05,-0.02,0.988,0.0,0.0,0.0,17,-12,-15,3.04,-1.11,-0.17,1.0,-0.01,0.027,-0.002,
27,1,71.697,-0.054,-0.017,0.986,0.0,0.0,0.0,17,-12,-15,3.04,-1.11,-0.17,1.0,-0.01,0.027,-0.002,
28,1,71.707,-0.054,-0.018,0.982,0.0,0.0,0.0,17,-12,-15,3.04,-1.11,-0.17,1.0,-0.01,0.026,-0.002,
29,1,71.717,-0.051,-0.021,0.985,0.0,0.0,0.0,17,-12,-15,3.04,-1.11,-0.17,1.0,-0.01,0.027,-0.002,
30,1,71.727,-0.049,-0.021,0.989,0.0,0.0,0.0,17,-12,-15,3.03,-1.11,-0.17,1.0,-0.01,0.026,-0.002,
31,1,71.737,-0.055,-0.021,0.987,0.0,0.0,0.0,17,-12,-15,3.03,-1.11,-0.17,1.0,-0.01,0.026,-0.002,
32,1,71.747,-0.055,-0.019,0.986,0.0,0.0,0.0,17,-12,-15,3.03,-1.11,-0.17,1.0,-0.01,0.026,-0.002,
33,1,71.757,-0.052,-0.02,0.985,0.0,0.0,0.0,17,-12,-15,3.04,-1.11,-0.17,1.0,-0.01,0.026,-0.002,
34,1,71.767,-0.052,-0.021,0.987,0.0,0.0,0.0,17,-12,-16,3.04,-1.11,-0.17,1.0,-0.01,0.026,-0.002,
35,1,71.777,-0.053,-0.021,0.985,0.0,0.0,0.0,17,-12,-15,3.03,-1.11,-0.17,1.0,-0.01,0.026,-0.002,
36,1,71.787,-0.053,-0.018,0.984,0.0,0.0,0.0,16,-11,-15,3.03,-1.11,-0.17,1.0,-0.01,0.026,-0.002,
37,1,71.797,-0.052,-0.02,0.987,0.0,0.0,0.0,17,-11,-16,3.03,-1.11,-0.17,1.0,-0.01,0.026,-0.002,
38,1,71.807,-0.052,-0.018,0.986,0.0,0.0,0.0,17,-12,-15,3.04,-1.11,-0.17,1.0,-0.01,0.026,-0.002,
39,1,71.817,-0.054,-0.015,0.979,0.0,0.0,0.0,17,-12,-15,3.03,-1.11,-0.17,1.0,-0.01,0.026,-0.002,
40,1,71.827,-0.054,-0.019,0.983,0.0,0.0,0.0,17,-12,-15,3.03,-1.11,-0.17,1.0,-0.01,0.026,-0.002,
41,1,71.837,-0.049,-0.022,0.985,0.0,0.0,0.0,17,-12,-15,3.04,-1.11,-0.17,1.0,-0.01,0.026,-0.002,
42,1,71.847,-0.051,-0.02,0.983,0.0,0.0,0.0,17,-12,-15,3.03,-1.11,-0.17,1.0,-0.01,0.026,-0.002,
43,1,71.857,-0.057,-0.014,0.985,0.0,0.0,0.0,17,-12,-15,3.03,-1.11,-0.17,1.0,-0.01,0.026,-0.002,
44,1,71.867,-0.055,-0.017,0.987,0.0,0.0,0.0,16,-12,-15,3.03,-1.11,-0.17,1.0,-0.01,0.026,-0.002,
45,1,71.877,-0.052,-0.024,0.987,0.0,0.0,0.0,17,-12,-15,3.04,-1.11,-0.17,1.0,-0.01,0.027,-0.002,
46,1,71.887,-0.049,-0.02,0.985,0.0,0.0,0.0,17,-11,-15,3.04,-1.11,-0.17,1.0,-0.01,0.027,-0.002,
47,1,71.897,-0.053,-0.014,0.983,0.0,0.0,0.0,16,-12,-16,3.03,-1.11,-0.17,1.0,-0.01,0.026,-0.002,
48,1,71.907,-0.054,-0.017,0.988,0.0,0.0,0.0,17,-12,-15,3.03,-1.11,-0.17,1.0,-0.01,0.026,-0.002,
49,1,71.917,-0.052,-0.017,0.986,0.0,0.0,0.0,17,-12,-15,3.03,-1.11,-0.17,1.0,-0.01,0.026,-0.002,
50,1,71.927,-0.053,-0.02,0.989,0.0,0.0,0.0,16,-12,-15,3.03,-1.11,-0.17,1.0,-0.01,0.026,-0.002,
51,1,71.937,-0.054,-0.017,0.982,0.0,0.0,0.0,16,-12,-15,3.03,-1.11,-0.17,1.0,-0.01,0.026,-0.002,
52,1,71.947,-0.056,-0.023,0.985,0.0,0.0,0.0,17,-12,-15,3.04,-1.11,-0.17,1.0,-0.01,0.026,-0.002,
53,1,71.957,-0.051,-0.021,0.986,0.0,0.0,0.0,17,-12,-15,3.04,-1.11,-0.17,1.0,-0.01,0.027,-0.002,
54,1,71.967,-0.054,-0.021,0.987,0.0,0.0,0.0,17,-11,-15,3.04,-1.11,-0.17,1.0,-0.01,0.026,-0.002,
55,1,71.977,-0.053,-0.014,0.982,0.0,0.0,0.0,17,-11,-15,3.03,-1.11,-0.17,1.0,-0.01,0.026,-0.002,
56,1,71.987,-0.054,-0.017,0.988,0.0,0.0,0.0,16,-11,-15,3.03,-1.11,-0.17,1.0,-0.01,0.026,-0.002,
57,1,71.997,-0.05,-0.023,0.987,0.0,0.0,0.0,17,-11,-15,3.04,-1.1,-0.17,1.0,-0.01,0.027,-0.002,
58,1,72.007,-0.053,-0.018,0.988,0.0,0.0,0.0,17,-12,-15,3.04,-1.11,-0.17,1.0,-0.01,0.027,-0.002,
59,1,72.017,-0.052,-0.016,0.984,0.0,0.0,0.0,17,-11,-16,3.04,-1.11,-0.17,1.0,-0.01,0.026,-0.002,
60,1,72.027,-0.052,-0.023,0.989,0.0,0.0,0.0,16,-12,-15,3.04,-1.11,-0.17,1.0,-0.01,0.026,-0.002,
61,1,72.037,-0.052,-0.022,0.987,0.0,0.0,0.0,16,-11,-15,3.04,-1.11,-0.17,1.0,-0.01,0.027,-0.002,
62,1,72.047,-0.051,-0.017,0.986,0.0,0.0,0.0,16,-11,-15,3.04,-1.11,-0.17,1.0,-0.01,0.026,-0.002,
63,1,72.057,-0.054,-0.017,0.984,0.0,0.0,0.0,17,-12,-15,3.03,-1.11,-0.17,1.0,-0.01,0.026,-0.002,
64,1,72.067,-0.052,-0.02,0.987,0.0,0.0,0.0,17,-12,-15,3.04,-1.11,-0.17,1.0,-0.01,0.027,-0.002,
65,1,72.077,-0.052,-0.019,0.986,0.0,0.0,0.0,17,-12,-15,3.04,-1.11,-0.17,1.0,-0.01,0.027,-0.002,
66,1,72.087,-0.056,-0.02,0.986,0.0,0.0,0.0,17,-12,-15,3.04,-1.11,-0.17,1.0,-0.01,0.027,-0.002,
67,1,72.097,-0.055,-0.02,0.986,0.0,0.0,0.0,17,-12,-15,3.04,-1.11,-0.17,1.0,-0.01,0.027,-0.002,
68,1,72.107,-0.05,-0.021,0.985,0.0,0.0,0.0,17,-12,-15,3.04,-1.11,-0.17,1.0,-0.01,0.027,-0.002,
69,1,72.117,-0.051,-0.021,0.988,0.0,0.0,0.0,17,-12,-15,3.04,-1.11,-0.17,1.0,-0.01,0.027,-0.002,
70,1,72.127,-0.053,-0.018,0.988,0.0,0.0,0.0,17,-12,-15,3.04,-1.11,-0.17,1.0,-0.01,0.027,-0.002,
71,1,72.137,-0.054,-0.02,0.983,0.0,0.0,0.0,17,-12,-15,3.04,-1.11,-0.17,1.0,-0.01,0.027,-0.002,
72,1,72.147,-0.054,-0.018,0.985,0.0,0.0,0.0,17,-12,-15,3.04,-1.11,-0.17,1.0,-0.01,0.027,-0.002,
73,1,72.157,-0.052,-0.02,0.986,0.0,0.0,0.0,17,-12,-15,3.04,-1.11,-0.17,1.0,-0.01,0.027,-0.002,
74,1,72.167,-0.053,-0.021,0.983,0.0,0.0,0.0,16,-11,-15,3.04,-1.11,-0.17,1.0,-0.01,0.027,-0.002,
75,1,72.177,-0.055,-0.014,0.984,0.0,0.0,0.0,17,-11,-16,3.04,-1.11,-0.17,1.0,-0.01,0.027,-0.002,
76,1,72.187,-0.048,-0.019,0.985,0.0,0.0,0.0,17,-11,-15,3.04,-1.11,-0.17,1.0,-0.01,0.027,-0.002,
77,1,72.197,-0.051,-0.021,0.988,0.0,0.0,0.0,16,-12,-15,3.04,-1.11,-0.17,1.0,-0.01,0.027,-0.002,
78,1,72.207,-0.054,-0.015,0.986,0.0,0.0,0.0,17,-12,-15,3.04,-1.11,-0.17,1.0,-0.01,0.026,-0.002,
79,1,72.217,-0.052,-0.017,0.983,0.0,0.0,0.0,17,-11,-15,3.04,-1.11,-0.17,1.0,-0.01,0.027,-0.002,
80,1,72.227,-0.053,-0.025,0.985,0.0,0.0,0.0,17,-12,-15,3.04,-1.11,-0.17,1.0,-0.01,0.027,-0.002,
81,1,72.237,-0.052,-0.02,0.987,0.0,0.0,0.0,17,-12,-15,3.04,-1.11,-0.17,1.0,-0.01,0.027,-0.002,
82,1,72.248,-0.054,-0.017,0.984,0.0,0.0,0.0,17,-12,-15,3.04,-1.11,-0.17,1.0,-0.01,0.027,-0.002,
83,1,72.258,-0.053,-0.021,0.986,0.0,0.0,0.0,17,-12,-15,3.04,-1.11,-0.17,1.0,-0.01,0.027,-0.002,
84,1,72.268,-0.052,-0.021,0.987,0.0,0.0,0.0,17,-11,-15,3.04,-1.11,-0.17,1.0,-0.01,0.027,-0.002,
85,1,72.278,-0.053,-0.016,0.985,0.0,0.0,0.0,17,-11,-16,3.04,-1.11,-0.17,1.0,-0.01,0.027,-0.002,
86,1,72.288,-0.053,-0.019,0.982,0.0,0.0,0.0,17,-12,-15,3.04,-1.11,-0.17,1.0,-0.01,0.027,-0.002,
87,1,72.298,-0.053,-0.021,0.987,0.0,0.0,0.0,17,-12,-15,3.04,-1.11,-0.17,1.0,-0.01,0.027,-0.002,
88,1,72.308,-0.053,-0.02,0.985,0.0,0.0,0.0,17,-12,-15,3.04,-1.11,-0.17,1.0,-0.01,0.027,-0.002,
89,1,72.318,-0.053,-0.02,0.985,0.0,0.0,0.0,17,-12,-15,3.04,-1.11,-0.17,1.0,-0.01,0.027,-0.002,
90,1,72.328,-0.052,-0.02,0.987,0.0,0.0,0.0,17,-12,-15,3.04,-1.11,-0.17,1.0,-0.01,0.027,-0.002,
91,1,72.337,-0.052,-0.02,0.987,0.0,0.0,0.0,17,-11,-15,3.04,-1.11,-0.17,1.0,-0.01,0.027,-0.002,
92,1,72.347,-0.053,-0.016,0.986,0.0,0.0,0.0,17,-11,-15,3.04,-1.11,-0.17,1.0,-0.01,0.027,-0.002,
93,1,72.357,-0.052,-0.02,0.982,0.0,0.0,0.0,17,-12,-15,3.04,-1.11,-0.17,1.0,-0.01,0.027,-0.002,
94,1,72.367,-0.05,-0.021,0.983,0.0,0.0,0.0,16,-12,-15,3.04,-1.11,-0.17,1.0,-0.01,0.027,-0.002,
95,1,72.377,-0.053,-0.018,0.984,0.0,0.0,0.0,16,-11,-15,3.04,-1.11,-0.17,1.0,-0.01,0.027,-0.002,
96,1,72.387,-0.053,-0.021,0.985,0.0,0.0,0.0,16,-12,-15,3.04,-1.11,-0.17,1.0,-0.01,0.027,-0.002,
97,1,72.397,-0.051,-0.02,0.984,0.0,0.0,0.0,16,-12,-15,3.04,-1.11,-0.17,1.0,-0.01,0.027,-0.002,
98,1,72.408,-0.052,-0.02,0.986,0.0,0.0,0.0,17,-12,-15,3.04,-1.11,-0.17,1.0,-0.01,0.027,-0.002,
99,1,72.418,-0.054,-0.02,0.986,0.0,0.0,0.0,16,-11,-16,3.04,-1.11,-0.17,1.0,-0.01,0.027,-0.002,
100,1,72.428,-0.055,-0.019,0.984,0.0,0.0,0.0,17,-12,-15,3.04,-1.11,-0.17,1.0,-0.01,0.027,-0.002,
101,1,72.438,-0.053,-0.021,0.986,0.0,0.0,0.0,17,-12,-15,3.04,-1.11,-0.17,1.0,-0.01,0.027,-0.002,
102,1,72.448,-0.05,-0.017,0.986,0.0,0.0,0.0,17,-12,-15,3.04,-1.11,-0.17,1.0,-0.01,0.027,-0.002,
103,1,72.458,-0.049,-0.021,0.983,0.0,0.0,0.0,17,-12,-15,3.04,-1.11,-0.17,1.0,-0.01,0.027,-0.002,
104,1,72.468,-0.052,-0.021,0.986,0.0,0.0,0.0,16,-11,-15,3.04,-1.11,-0.17,1.0,-0.01,0.027,-0.002,
105,1,72.478,-0.051,-0.019,0.99,0.0,0.0,0.0,17,-12,-15,3.04,-1.11,-0.17,1.0,-0.01,0.027,-0.002,
106,1,72.488,-0.051,-0.021,0.985,0.0,0.0,0.0,16,-12,-15,3.04,-1.11,-0.17,1.0,-0.01,0.027,-0.002,
107,1,72.498,-0.054,-0.021,0.986,0.0,0.0,0.0,16,-12,-15,3.04,-1.11,-0.17,1.0,-0.01,0.026,-0.002,
108,1,72.508,-0.052,-0.017,0.984,0.0,0.0,0.0,17,-12,-15,3.03,-1.11,-0.17,1.0,-0.01,0.026,-0.002,
109,1,72.518,-0.053,-0.017,0.987,0.0,0.0,0.0,17,-11,-15,3.04,-1.11,-0.17,1.0,-0.01,0.027,-0.002,
110,1,72.528,-0.051,-0.021,0.987,0.0,0.0,0.0,17,-11,-15,3.04,-1.11,-0.17,1.0,-0.01,0.027,-0.002,
111,1,72.538,-0.051,-0.019,0.983,0.0,0.0,0.0,17,-12,-15,3.04,-1.11,-0.17,1.0,-0.01,0.026,-0.002,
112,1,72.548,-0.052,-0.015,0.983,0.0,0.0,0.0,17,-11,-15,3.03,-1.11,-0.17,1.0,-0.01,0.026,-0.002,
113,1,72.558,-0.053,-0.02,0.986,0.0,0.0,0.0,17,-12,-15,3.04,-1.11,-0.17,1.0,-0.01,0.026,-0.002,
114,1,72.568,-0.054,-0.02,0.987,0.0,0.0,0.0,17,-11,-15,3.03,-1.11,-0.17,1.0,-0.01,0.026,-0.002,
115,1,72.578,-0.05,-0.02,0.98,0.0,0.0,0.0,17,-11,-15,3.03,-1.11,-0.17,1.0,-0.01,0.026,-0.002,
116,1,72.588,-0.051,-0.019,0.986,0.0,0.0,0.0,17,-11,-15,3.03,-1.11,-0.17,1.0,-0.01,0.026,-0.002,
117,1,72.598,-0.053,-0.02,0.988,0.0,0.0,0.0,17,-11,-15,3.03,-1.11,-0.17,1.0,-0.01,0.026,-0.002,
118,1,72.608,-0.053,-0.023,0.985,0.0,0.0,0.0,17,-12,-15,3.03,-1.11,-0.17,1.0,-0.01,0.026,-0.002,
119,1,72.618,-0.053,-0.018,0.982,0.0,0.0,0.0,17,-12,-15,3.03,-1.11,-0.17,1.0,-0.01,0.026,-0.002,
120,1,72.628,-0.053,-0.02,0.988,0.0,0.0,0.0,16,-11,-16,3.03,-1.11,-0.17,1.0,-0.01,0.026,-0.002,
121,1,72.638,-0.051,-0.021,0.99,0.0,0.0,0.0,17,-11,-15,3.03,-1.11,-0.17,1.0,-0.01,0.026,-0.002,
122,1,72.648,-0.055,-0.019,0.988,0.0,0.0,0.0,17,-12,-16,3.03,-1.11,-0.17,1.0,-0.01,0.026,-0.002,
123,1,72.658,-0.056,-0.018,0.986,0.0,0.0,0.0,17,-12,-15,3.03,-1.11,-0.17,1.0,-0.01,0.026,-0.002,
124,1,72.668,-0.052,-0.019,0.986,0.0,0.0,0.0,17,-12,-15,3.03,-1.11,-0.17,1.0,-0.01,0.026,-0.002,
125,1,72.678,-0.051,-0.019,0.985,0.0,0.0,0.0,17,-12,-15,3.03,-1.11,-0.17,1.0,-0.01,0.026,-0.002,
126,1,72.688,-0.052,-0.022,0.988,0.0,0.0,0.0,17,-12,-15,3.03,-1.11,-0.17,1.0,-0.01,0.026,-0.002,
127,1,72.698,-0.055,-0.017,0.987,0.0,0.0,0.0,17,-12,-15,3.03,-1.11,-0.17,1.0,-0.01,0.026,-0.002,
128,1,72.708,-0.052,-0.019,0.985,0.0,0.0,0.0,17,-12,-15,3.03,-1.11,-0.17,1.0,-0.01,0.026,-0.002,
129,1,72.718,-0.05,-0.02,0.985,0.0,0.0,0.0,17,-11,-15,3.04,-1.11,-0.17,1.0,-0.01,0.027,-0.002,
130,1,72.728,-0.051,-0.021,0.986,0.0,0.0,0.0,16,-12,-15,3.03,-1.11,-0.17,1.0,-0.01,0.026,-0.002,
131,1,72.738,-0.053,-0.019,0.986,0.0,0.0,0.0,16,-11,-15,3.03,-1.11,-0.17,1.0,-0.01,0.026,-0.002,
132,1,72.748,-0.054,-0.018,0.987,0.0,0.0,0.0,16,-12,-15,3.03,-1.11,-0.17,1.0,-0.01,0.026,-0.002,
133,1,72.758,-0.048,-0.022,0.989,0.0,0.0,0.0,17,-12,-15,3.03,-1.11,-0.17,1.0,-0.01,0.026,-0.002,
134,1,72.768,-0.055,-0.02,0.988,0.0,0.0,0.0,17,-12,-15,3.03,-1.11,-0.17,1.0,-0.01,0.026,-0.002,
135,1,72.778,-0.054,-0.017,0.984,0.0,0.0,0.0,17,-11,-15,3.03,-1.11,-0.17,1.0,-0.01,0.026,-0.002,
136,1,72.788,-0.052,-0.018,0.986,0.0,0.0,0.0,17,-11,-15,3.03,-1.11,-0.17,1.0,-0.01,0.026,-0.002,
137,1,72.798,-0.049,-0.026,0.986,0.0,0.0,0.0,17,-11,-15,3.03,-1.11,-0.17,1.0,-0.01,0.026,-0.002,
138,1,72.808,-0.05,-0.018,0.983,0.0,0.0,0.0,17,-12,-15,3.03,-1.11,-0.17,1.0,-0.01,0.026,-0.002,
139,1,72.818,-0.054,-0.012,0.984,0.0,0.0,0.0,16,-11,-16,3.03,-1.11,-0.17,1.0,-0.01,0.026,-0.002,
140,1,72.828,-0.053,-0.022,0.987,0.0,0.0,0.0,16,-11,-16,3.03,-1.11,-0.17,1.0,-0.01,0.026,-0.002,
141,1,72.838,-0.049,-0.021,0.987,0.0,0.0,0.0,17,-12,-16,3.03,-1.11,-0.17,1.0,-0.01,0.026,-0.002,
142,1,72.848,-0.054,-0.017,0.984,0.0,0.0,0.0,16,-11,-16,3.03,-1.11,-0.17,1.0,-0.01,0.026,-0.002,
143,1,72.858,-0.054,-0.017,0.985,0.0,0.0,0.0,17,-12,-15,3.03,-1.11,-0.17,1.0,-0.01,0.026,-0.002,
144,1,72.868,-0.053,-0.022,0.988,0.0,0.0,0.0,17,-11,-15,3.03,-1.11,-0.17,1.0,-0.01,0.026,-0.002,
145,1,72.878,-0.052,-0.021,0.984,0.0,0.0,0.0,16,-11,-15,3.03,-1.11,-0.17,1.0,-0.01,0.026,-0.002,
146,1,72.888,-0.052,-0.018,0.983,0.0,0.0,0.0,16,-11,-15,3.03,-1.11,-0.17,1.0,-0.01,0.026,-0.002,
147,1,72.898,-0.055,-0.018,0.984,0.0,0.0,0.0,17,-12,-15,3.03,-1.11,-0.17,1.0,-0.01,0.026,-0.002,
148,1,72.908,-0.054,-0.021,0.989,0.0,0.0,0.0,17,-12,-15,3.03,-1.11,-0.17,1.0,-0.01,0.026,-0.002,
149,1,72.918,-0.049,-0.021,0.987,0.0,0.0,0.0,17,-12,-15,3.03,-1.11,-0.17,1.0,-0.01,0.026,-0.002,
150,1,72.928,-0.051,-0.019,0.982,0.0,0.0,0.0,17,-12,-15,3.03,-1.11,-0.17,1.0,-0.01,0.026,-0.002,
151,1,72.938,-0.055,-0.017,0.985,0.0,0.0,0.0,17,-11,-16,3.03,-1.11,-0.17,1.0,-0.01,0.026,-0.002,
152,1,72.948,-0.054,-0.021,0.99,0.0,0.0,0.0,17,-12,-16,3.03,-1.11,-0.17,1.0,-0.01,0.026,-0.002,
153,1,72.958,-0.05,-0.022,0.987,0.0,0.0,0.0,17,-12,-16,3.03,-1.11,-0.17,1.0,-0.01,0.026,-0.002,
154,1,72.968,-0.058,-0.019,0.984,0.0,0.0,0.0,17,-12,-15,3.03,-1.11,-0.17,1.0,-0.01,0.026,-0.002,
155,1,72.978,-0.055,-0.018,0.986,0.0,0.0,0.0,17,-12,-15,3.03,-1.11,-0.17,1.0,-0.01,0.026,-0.002,
156,1,72.988,-0.049,-0.023,0.989,0.0,0.0,0.0,17,-12,-15,3.04,-1.11,-0.17,1.0,-0.01,0.027,-0.002,
157,1,72.998,-0.052,-0.021,0.988,0.0,0.0,0.0,17,-12,-15,3.03,-1.11,-0.17,1.0,-0.01,0.026,-0.002,
158,1,73.008,-0.054,-0.017,0.982,0.0,0.0,0.0,17,-12,-15,3.03,-1.11,-0.17,1.0,-0.01,0.026,-0.002,
159,1,73.018,-0.054,-0.02,0.984,0.0,0.0,0.0,17,-11,-16,3.03,-1.11,-0.17,1.0,-0.01,0.026,-0.002,
160,1,73.028,-0.051,-0.021,0.989,0.0,0.0,0.0,17,-12,-16,3.03,-1.11,-0.17,1.0,-0.01,0.026,-0.002,
161,1,73.038,-0.052,-0.021,0.986,0.0,0.0,0.0,17,-12,-15,3.03,-1.11,-0.17,1.0,-0.01,0.026,-0.002,
162,1,73.048,-0.053,-0.016,0.984,0.0,0.0,0.0,17,-11,-15,3.03,-1.11,-0.17,1.0,-0.01,0.026,-0.002,
163,1,73.058,-0.051,-0.018,0.983,0.0,0.0,0.0,17,-12,-15,3.03,-1.11,-0.17,1.0,-0.01,0.026,-0.002,
164,1,73.068,-0.054,-0.023,0.988,0.0,0.0,0.0,17,-12,-15,3.03,-1.11,-0.17,1.0,-0.01,0.026,-0.002,
165,1,73.078,-0.052,-0.018,0.985,0.0,0.0,0.0,17,-12,-15,3.03,-1.11,-0.17,1.0,-0.01,0.026,-0.002,
166,1,73.088,-0.054,-0.016,0.984,0.0,0.0,0.0,17,-12,-15,3.03,-1.11,-0.17,1.0,-0.01,0.026,-0.002,
167,1,73.098,-0.054,-0.02,0.986,0.0,0.0,0.0,17,-12,-16,3.03,-1.11,-0.17,1.0,-0.01,0.026,-0.002,
168,1,73.108,-0.051,-0.022,0.992,0.0,0.0,0.0,17,-12,-15,3.03,-1.11,-0.17,1.0,-0.01,0.026,-0.002,
169,1,73.118,-0.053,-0.02,0.987,0.0,0.0,0.0,17,-11,-15,3.03,-1.11,-0.17,1.0,-0.01,0.026,-0.002,
170,1,73.128,-0.055,-0.019,0.982,0.0,0.0,0.0,17,-12,-15,3.03,-1.11,-0.17,1.0,-0.01,0.026,-0.002,
171,1,73.138,-0.052,-0.021,0.983,0.0,0.0,0.0,17,-12,-15,3.03,-1.11,-0.17,1.0,-0.01,0.026,-0.002,
172,1,73.148,-0.054,-0.017,0.988,0.0,0.0,0.0,17,-12,-15,3.04,-1.11,-0.17,1.0,-0.01,0.027,-0.002,
173,1,73.158,-0.054,-0.02,0.987,0.0,0.0,0.0,17,-12,-15,3.04,-1.11,-0.17,1.0,-0.01,0.027,-0.002,
174,1,73.168,-0.055,-0.017,0.985,0.0,0.0,0.0,17,-12,-16,3.03,-1.11,-0.17,1.0,-0.01,0.026,-0.002,
175,1,73.178,-0.051,-0.018,0.983,0.0,0.0,0.0,17,-12,-16,3.04,-1.11,-0.17,1.0,-0.01,0.027,-0.002,
176,1,73.188,-0.049,-0.021,0.985,0.0,0.0,0.0,17,-12,-15,3.04,-1.11,-0.17,1.0,-0.01,0.027,-0.002,
177,1,73.198,-0.052,-0.019,0.985,0.0,0.0,0.0,17,-12,-16,3.03,-1.12,-0.17,1.0,-0.01,0.026,-0.002,
178,1,73.208,-0.057,-0.018,0.983,0.0,0.0,0.0,17,-12,-15,3.03,-1.12,-0.17,1.0,-0.01,0.026,-0.002,
179,1,73.218,-0.052,-0.02,0.986,0.0,0.0,0.0,17,-12,-15,3.03,-1.12,-0.17,1.0,-0.01,0.026,-0.002,
180,1,73.228,-0.05,-0.021,0.985,0.0,0.0,0.0,17,-12,-15,3.03,-1.12,-0.17,1.0,-0.01,0.026,-0.002,
181,1,73.238,-0.052,-0.02,0.984,0.0,0.0,0.0,17,-11,-15,3.03,-1.12,-0.17,1.0,-0.01,0.026,-0.002,
182,1,73.248,-0.055,-0.02,0.983,0.0,0.0,0.0,17,-12,-16,3.03,-1.12,-0.17,1.0,-0.01,0.026,-0.002,
183,1,73.258,-0.048,-0.021,0.989,0.0,0.0,0.0,17,-12,-15,3.03,-1.12,-0.17,1.0,-0.01,0.026,-0.002,
184,1,73.268,-0.052,-0.021,0.987,0.0,0.0,0.0,16,-12,-16,3.03,-1.12,-0.17,1.0,-0.01,0.026,-0.002,
185,1,73.278,-0.052,-0.017,0.981,0.0,0.0,0.0,17,-12,-15,3.03,-1.12,-0.17,1.0,-0.01,0.026,-0.002,
186,1,73.288,-0.054,-0.019,0.987,0.0,0.0,0.0,16,-12,-15,3.03,-1.12,-0.17,1.0,-0.01,0.026,-0.002,
187,1,73.298,-0.051,-0.02,0.985,0.0,0.0,0.0,16,-12,-16,3.03,-1.11,-0.17,1.0,-0.01,0.026,-0.002,
188,1,73.308,-0.052,-0.021,0.982,0.0,0.0,0.0,17,-11,-15,3.03,-1.12,-0.17,1.0,-0.01,0.026,-0.002,
189,1,73.318,-0.052,-0.019,0.985,0.0,0.0,0.0,17,-12,-15,3.03,-1.12,-0.17,1.0,-0.01,0.026,-0.002,
190,1,73.328,-0.052,-0.02,0.986,0.0,0.0,0.0,16,-12,-15,3.03,-1.12,-0.17,1.0,-0.01,0.026,-0.002,
191,1,73.338,-0.051,-0.021,0.986,0.0,0.0,0.0,16,-11,-15,3.03,-1.12,-0.17,1.0,-0.01,0.026,-0.002,
192,1,73.348,-0.05,-0.02,0.986,0.0,0.0,0.0,17,-11,-15,3.03,-1.12,-0.17,1.0,-0.01,0.026,-0.002,
193,1,73.358,-0.053,-0.016,0.984,0.0,0.0,0.0,17,-12,-15,3.03,-1.12,-0.17,1.0,-0.01,0.026,-0.002,
194,1,73.368,-0.055,-0.02,0.98,0.0,0.0,0.0,17,-11,-15,3.03,-1.12,-0.17,1.0,-0.01,0.026,-0.002,
195,1,73.378,-0.053,-0.021,0.986,0.0,0.0,0.0,17,-12,-15,3.03,-1.12,-0.17,1.0,-0.01,0.026,-0.002,
196,1,73.388,-0.05,-0.02,0.986,0.0,0.0,0.0,17,-11,-15,3.03,-1.12,-0.17,1.0,-0.01,0.026,-0.002,
197,1,73.398,-0.054,-0.019,0.986,0.0,0.0,0.0,16,-12,-15,3.03,-1.12,-0.17,1.0,-0.01,0.026,-0.002,
198,1,73.408,-0.052,-0.016,0.987,0.0,0.0,0.0,17,-12,-15,3.03,-1.12,-0.17,1.0,-0.01,0.026,-0.002,
199,1,73.418,-0.05,-0.021,0.987,0.0,0.0,0.0,17,-11,-15,3.03,-1.12,-0.17,1.0,-0.01,0.026,-0.002,
200,1,73.428,-0.052,-0.02,0.984,0.0,0.0,0.0,16,-12,-15,3.03,-1.12,-0.17,1.0,-0.01,0.026,-0.002,
201,1,73.438,-0.054,-0.021,0.986,0.0,0.0,0.0,17,-12,-15,3.03,-1.12,-0.17,1.0,-0.01,0.026,-0.002,
202,1,73.448,-0.053,-0.019,0.987,0.0,0.0,0.0,17,-12,-15,3.03,-1.12,-0.17,1.0,-0.01,0.026,-0.002,
203,1,73.458,-0.053,-0.021,0.988,0.0,0.0,0.0,17,-12,-15,3.03,-1.12,-0.17,1.0,-0.01,0.026,-0.002,
204,1,73.468,-0.054,-0.019,0.992,0.0,0.0,0.0,17,-12,-16,3.03,-1.12,-0.17,1.0,-0.01,0.026,-0.002,
205,1,73.478,-0.055,-0.019,0.985,0.0,0.0,0.0,16,-12,-15,3.03,-1.12,-0.17,1.0,-0.01,0.026,-0.002,
206,1,73.488,-0.053,-0.018,0.983,0.0,0.0,0.0,17,-12,-15,3.03,-1.12,-0.17,1.0,-0.01,0.026,-0.002,
207,1,73.498,-0.054,-0.02,0.987,0.0,0.0,0.0,16,-11,-15,3.03,-1.12,-0.17,1.0,-0.01,0.026,-0.002,
208,1,73.508,-0.052,-0.021,0.989,0.0,0.0,0.0,17,-12,-15,3.03,-1.12,-0.17,1.0,-0.01,0.026,-0.002,
209,1,73.518,-0.052,-0.019,0.986,0.0,0.0,0.0,17,-11,-15,3.03,-1.12,-0.17,1.0,-0.01,0.026,-0.002,
210,1,73.528,-0.051,-0.02,0.985,0.0,0.0,0.0,16,-12,-16,3.03,-1.12,-0.17,1.0,-0.01,0.026,-0.002,
211,1,73.538,-0.054,-0.02,0.985,0.0,0.0,0.0,17,-11,-15,3.03,-1.12,-0.17,1.0,-0.01,0.026,-0.002,
212,1,73.548,-0.054,-0.019,0.986,0.0,0.0,0.0,16,-12,-15,3.03,-1.12,-0.17,1.0,-0.01,0.026,-0.002,
213,1,73.558,-0.054,-0.015,0.985,0.0,0.0,0.0,17,-12,-15,3.03,-1.12,-0.17,1.0,-0.01,0.026,-0.002,
214,1,73.568,-0.052,-0.02,0.987,0.0,0.0,0.0,17,-12,-15,3.03,-1.12,-0.17,1.0,-0.01,0.026,-0.002,
215,1,73.578,-0.048,-0.021,0.984,0.0,0.0,0.0,17,-12,-15,3.03,-1.11,-0.17,1.0,-0.01,0.026,-0.002,
216,1,73.588,-0.054,-0.018,0.983,0.0,0.0,0.0,16,-12,-15,3.03,-1.11,-0.17,1.0,-0.01,0.026,-0.002,
217,1,73.598,-0.055,-0.02,0.99,0.0,0.0,0.0,16,-12,-15,3.03,-1.11,-0.17,1.0,-0.01,0.026,-0.002,
218,1,73.608,-0.053,-0.019,0.985,0.0,0.0,0.0,16,-12,-15,3.03,-1.11,-0.17,1.0,-0.01,0.026,-0.002,
219,1,73.618,-0.052,-0.018,0.985,0.0,0.0,0.0,17,-12,-15,3.03,-1.12,-0.17,1.0,-0.01,0.026,-0.002,
220,1,73.628,-0.051,-0.021,0.988,0.0,0.0,0.0,17,-12,-16,3.03,-1.11,-0.17,1.0,-0.01,0.026,-0.002,
221,1,73.638,-0.052,-0.022,0.989,0.0,0.0,0.0,16,-12,-15,3.03,-1.11,-0.17,1.0,-0.01,0.026,-0.002,
222,1,73.648,-0.05,-0.019,0.985,0.0,0.0,0.0,17,-12,-15,3.03,-1.12,-0.17,1.0,-0.01,0.026,-0.002,
223,1,73.658,-0.053,-0.017,0.985,0.0,0.0,0.0,17,-12,-15,3.03,-1.12,-0.17,1.0,-0.01,0.026,-0.002,
224,1,73.668,-0.053,-0.019,0.986,0.0,0.0,0.0,17,-11,-16,3.03,-1.11,-0.17,1.0,-0.01,0.026,-0.002,
225,1,73.678,-0.054,-0.018,0.988,0.0,0.0,0.0,17,-12,-15,3.03,-1.11,-0.17,1.0,-0.01,0.026,-0.002,
226,1,73.688,-0.053,-0.016,0.984,0.0,0.0,0.0,17,-12,-16,3.03,-1.11,-0.17,1.0,-0.01,0.026,-0.002,
227,1,73.698,-0.052,-0.021,0.983,0.0,0.0,0.0,17,-12,-16,3.03,-1.11,-0.17,1.0,-0.01,0.026,-0.002,
228,1,73.708,-0.054,-0.021,0.986,0.0,0.0,0.0,16,-12,-15,3.03,-1.11,-0.17,1.0,-0.01,0.026,-0.002,
229,1,73.718,-0.051,-0.02,0.985,0.0,0.0,0.0,17,-11,-15,3.03,-1.11,-0.17,1.0,-0.01,0.026,-0.002,
230,1,73.728,-0.051,-0.02,0.985,0.0,0.0,0.0,17,-11,-15,3.03,-1.11,-0.17,1.0,-0.01,0.026,-0.002,
231,1,73.738,-0.055,-0.019,0.986,0.0,0.0,0.0,17,-11,-15,3.03,-1.11,-0.17,1.0,-0.01,0.026,-0.002,
232,1,73.748,-0.049,-0.021,0.988,0.0,0.0,0.0,17,-11,-15,3.03,-1.11,-0.17,1.0,-0.01,0.026,-0.002,
233,1,73.758,-0.052,-0.017,0.985,0.0,0.0,0.0,17,-12,-15,3.03,-1.11,-0.17,1.0,-0.01,0.026,-0.002,
234,1,73.768,-0.053,-0.021,0.985,0.0,0.0,0.0,16,-12,-15,3.03,-1.11,-0.17,1.0,-0.01,0.026,-0.002,
235,1,73.778,-0.051,-0.02,0.988,0.0,0.0,0.0,17,-12,-15,3.03,-1.11,-0.17,1.0,-0.01,0.026,-0.002,
236,1,73.788,-0.048,-0.021,0.985,0.0,0.0,0.0,17,-12,-15,3.03,-1.11,-0.17,1.0,-0.01,0.026,-0.002,
237,1,73.798,-0.053,-0.021,0.986,0.0,0.0,0.0,17,-12,-15,3.03,-1.11,-0.17,1.0,-0.01,0.026,-0.002,
238,1,73.808,-0.053,-0.014,0.981,0.0,0.0,0.0,16,-12,-16,3.03,-1.11,-0.17,1.0,-0.01,0.026,-0.002,
239,1,73.818,-0.053,-0.02,0.989,0.0,0.0,0.0,17,-12,-15,3.03,-1.11,-0.17,1.0,-0.01,0.026,-0.002,
240,1,73.828,-0.049,-0.019,0.988,0.0,0.0,0.0,17,-12,-16,3.03,-1.11,-0.17,1.0,-0.01,0.026,-0.002,
241,1,73.838,-0.048,-0.02,0.985,0.0,0.0,0.0,17,-12,-16,3.03,-1.11,-0.17,1.0,-0.01,0.026,-0.002,
242,1,73.848,-0.054,-0.019,0.983,0.0,0.0,0.0,17,-12,-15,3.03,-1.11,-0.17,1.0,-0.01,0.026,-0.002,
243,1,73.858,-0.055,-0.016,0.989,0.0,0.0,0.0,17,-12,-15,3.03,-1.11,-0.17,1.0,-0.01,0.026,-0.002,
244,1,73.868,-0.053,-0.023,0.986,0.0,0.0,0.0,17,-11,-15,3.03,-1.11,-0.17,1.0,-0.01,0.026,-0.002,
245,1,73.878,-0.048,-0.021,0.985,0.0,0.0,0.0,17,-12,-15,3.03,-1.11,-0.17,1.0,-0.01,0.026,-0.002,
246,1,73.888,-0.054,-0.015,0.985,0.0,0.0,0.0,17,-11,-15,3.03,-1.11,-0.17,1.0,-0.01,0.026,-0.002,
247,1,73.898,-0.053,-0.019,0.985,0.0,0.0,0.0,17,-12,-15,3.03,-1.11,-0.17,1.0,-0.01,0.026,-0.002,
248,1,73.908,-0.052,-0.022,0.986,0.0,0.0,0.0,17,-12,-15,3.03,-1.11,-0.17,1.0,-0.01,0.026,-0.002,
249,1,73.918,-0.055,-0.019,0.983,0.0,0.0,0.0,17,-11,-15,3.03,-1.11,-0.17,1.0,-0.01,0.026,-0.002,
250,1,73.928,-0.053,-0.018,0.986,0.0,0.0,0.0,17,-12,-16,3.03,-1.11,-0.17,1.0,-0.01,0.026,-0.002,
251,1,73.938,-0.053,-0.021,0.985,0.0,0.0,0.0,17,-12,-16,3.03,-1.11,-0.17,1.0,-0.01,0.026,-0.002,
252,1,73.948,-0.048,-0.02,0.988,0.0,0.0,0.0,17,-12,-15,3.03,-1.11,-0.17,1.0,-0.01,0.026,-0.002,
253,1,73.958,-0.052,-0.017,0.985,0.0,0.0,0.0,17,-12,-15,3.03,-1.11,-0.17,1.0,-0.01,0.026,-0.002,
254,1,73.968,-0.056,-0.019,0.985,0.0,0.0,0.0,16,-11,-15,3.03,-1.11,-0.17,1.0,-0.01,0.026,-0.002,
255,1,73.978,-0.052,-0.02,0.988,0.0,0.0,0.0,16,-12,-15,3.03,-1.11,-0.17,1.0,-0.01,0.026,-0.002,
256,1,73.988,-0.053,-0.02,0.986,0.0,0.0,0.0,16,-11,-15,3.03,-1.11,-0.17,1.0,-0.01,0.026,-0.002,
257,1,73.998,-0.053,-0.017,0.986,0.0,0.0,0.0,16,-12,-15,3.03,-1.11,-0.17,1.0,-0.01,0.026,-0.002,
258,1,74.008,-0.054,-0.018,0.984,0.0,0.0,0.0,17,-12,-15,3.03,-1.11,-0.17,1.0,-0.01,0.026,-0.002,
259,1,74.018,-0.051,-0.02,0.988,0.0,0.0,0.0,17,-12,-15,3.03,-1.11,-0.17,1.0,-0.01,0.026,-0.002,
260,1,74.028,-0.05,-0.021,0.989,0.0,0.0,0.0,16,-12,-15,3.03,-1.11,-0.17,1.0,-0.01,0.026,-0.002,
261,1,74.038,-0.054,-0.02,0.982,0.0,0.0,0.0,16,-12,-16,3.03,-1.11,-0.17,1.0,-0.01,0.026,-0.002,
262,1,74.048,-0.054,-0.015,0.984,0.0,0.0,0.0,16,-12,-15,3.03,-1.11,-0.17,1.0,-0.01,0.026,-0.002,
263,1,74.058,-0.055,-0.018,0.989,0.0,0.0,0.0,17,-12,-15,3.03,-1.11,-0.17,1.0,-0.01,0.026,-0.002,
264,1,74.068,-0.052,-0.021,0.989,0.0,0.0,0.0,17,-12,-15,3.03,-1.11,-0.17,1.0,-0.01,0.026,-0.002,
265,1,74.078,-0.05,-0.017,0.986,0.0,0.0,0.0,17,-11,-15,3.03,-1.11,-0.17,1.0,-0.01,0.026,-0.002,
266,1,74.088,-0.054,-0.015,0.983,0.0,0.0,0.0,17,-12,-15,3.03,-1.11,-0.17,1.0,-0.01,0.026,-0.002,
267,1,74.098,-0.049,-0.022,0.988,0.0,0.0,0.0,17,-11,-15,3.03,-1.11,-0.17,1.0,-0.01,0.026,-0.002,
268,1,74.108,-0.054,-0.021,0.99,0.0,0.0,0.0,17,-11,-15,3.03,-1.11,-0.17,1.0,-0.01,0.026,-0.002,
269,1,74.118,-0.054,-0.015,0.987,0.0,0.0,0.0,17,-11,-15,3.03,-1.11,-0.17,1.0,-0.01,0.026,-0.002,
270,1,74.128,-0.051,-0.019,0.984,0.0,0.0,0.0,17,-12,-15,3.03,-1.11,-0.17,1.0,-0.01,0.026,-0.002,
271,1,74.138,-0.049,-0.021,0.987,0.0,0.0,0.0,17,-12,-15,3.03,-1.11,-0.17,1.0,-0.01,0.026,-0.002,
272,1,74.148,-0.053,-0.021,0.987,0.0,0.0,0.0,17,-12,-15,3.03,-1.11,-0.17,1.0,-0.01,0.026,-0.002,
273,1,74.158,-0.054,-0.015,0.981,0.0,0.0,0.0,17,-12,-15,3.03,-1.11,-0.17,1.0,-0.01,0.026,-0.002,
274,1,74.168,-0.052,-0.019,0.983,0.0,0.0,0.0,17,-11,-15,3.03,-1.11,-0.17,1.0,-0.01,0.026,-0.002,
275,1,74.178,-0.05,-0.02,0.986,0.0,0.0,0.0,17,-11,-16,3.03,-1.11,-0.17,1.0,-0.01,0.026,-0.002,
276,1,74.188,-0.052,-0.02,0.986,0.0,0.0,0.0,17,-11,-16,3.03,-1.11,-0.17,1.0,-0.01,0.026,-0.002,
277,1,74.198,-0.054,-0.019,0.985,0.0,0.0,0.0,16,-11,-16,3.03,-1.11,-0.17,1.0,-0.01,0.026,-0.002,
278,1,74.208,-0.056,-0.019,0.988,0.0,0.0,0.0,16,-11,-16,3.03,-1.11,-0.17,1.0,-0.01,0.026,-0.002,
279,1,74.218,-0.048,-0.022,0.987,0.0,0.0,0.0,17,-12,-15,3.03,-1.11,-0.17,1.0,-0.01,0.026,-0.002,
280,1,74.228,-0.05,-0.019,0.989,0.0,0.0,0.0,17,-11,-15,3.03,-1.11,-0.17,1.0,-0.01,0.026,-0.002,
281,1,74.238,-0.054,-0.02,0.984,0.0,0.0,0.0,17,-12,-16,3.03,-1.11,-0.17,1.0,-0.01,0.026,-0.002,
282,1,74.248,-0.054,-0.021,0.987,0.0,0.0,0.0,17,-12,-15,3.03,-1.11,-0.17,1.0,-0.01,0.026,-0.002,
283,1,74.258,-0.051,-0.018,0.987,0.0,0.0,0.0,17,-12,-15,3.03,-1.11,-0.17,1.0,-0.01,0.026,-0.002,
284,1,74.268,-0.051,-0.022,0.985,0.0,0.0,0.0,16,-12,-15,3.03,-1.11,-0.17,1.0,-0.01,0.026,-0.002,
285,1,74.278,-0.054,-0.016,0.986,0.0,0.0,0.0,16,-12,-15,3.03,-1.11,-0.17,1.0,-0.01,0.026,-0.002,
286,1,74.288,-0.055,-0.017,0.985,0.0,0.0,0.0,16,-12,-15,3.03,-1.11,-0.17,1.0,-0.01,0.026,-0.002,
287,1,74.298,-0.051,-0.021,0.988,0.0,0.0,0.0,16,-12,-15,3.03,-1.11,-0.17,1.0,-0.01,0.026,-0.002,
288,1,74.308,-0.052,-0.021,0.985,0.0,0.0,0.0,16,-12,-15,3.03,-1.11,-0.17,1.0,-0.01,0.026,-0.002,
289,1,74.318,-0.053,-0.016,0.984,0.0,0.0,0.0,17,-12,-15,3.03,-1.11,-0.17,1.0,-0.01,0.026,-0.002,
290,1,74.328,-0.052,-0.017,0.986,0.0,0.0,0.0,16,-12,-15,3.04,-1.11,-0.17,1.0,-0.01,0.026,-0.002,
291,1,74.338,-0.052,-0.024,0.99,0.0,0.0,0.0,17,-12,-15,3.04,-1.11,-0.17,1.0,-0.01,0.027,-0.002,
292,1,74.348,-0.051,-0.021,0.985,0.0,0.0,0.0,17,-12,-15,3.03,-1.11,-0.17,1.0,-0.01,0.026,-0.002,
293,1,74.358,-0.054,-0.015,0.984,0.0,0.0,0.0,17,-12,-15,3.03,-1.11,-0.17,1.0,-0.01,0.026,-0.002,
294,1,74.368,-0.052,-0.021,0.987,0.0,0.0,0.0,17,-12,-15,3.04,-1.11,-0.17,1.0,-0.01,0.027,-0.002,
295,1,74.378,-0.052,-0.021,0.985,0.0,0.0,0.0,17,-12,-15,3.04,-1.11,-0.17,1.0,-0.01,0.027,-0.002,
296,1,74.388,-0.052,-0.018,0.983,0.0,0.0,0.0,16,-11,-15,3.04,-1.11,-0.17,1.0,-0.01,0.027,-0.002,
297,1,74.398,-0.054,-0.017,0.982,0.0,0.0,0.0,16,-12,-15,3.04,-1.11,-0.17,1.0,-0.01,0.027,-0.002,
298,1,74.408,-0.053,-0.022,0.985,0.0,0.0,0.0,16,-12,-15,3.04,-1.11,-0.17,1.0,-0.01,0.027,-0.002,
299,1,74.418,-0.053,-0.022,0.989,0.0,0.0,0.0,17,-12,-15,3.04,-1.11,-0.17,1.0,-0.01,0.027,-0.002,
300,1,74.428,-0.052,-0.018,0.984,0.0,0.0,0.0,16,-11,-15,3.04,-1.11,-0.17,1.0,-0.01,0.027,-0.002,
301,1,74.438,-0.054,-0.02,0.983,0.0,0.0,0.0,17,-12,-15,3.04,-1.11,-0.17,1.0,-0.01,0.027,-0.002,
302,1,74.448,-0.052,-0.019,0.984,0.0,0.0,0.0,16,-11,-15,3.04,-1.11,-0.17,1.0,-0.01,0.027,-0.002,
303,1,74.458,-0.051,-0.018,0.99,0.0,0.0,0.0,16,-11,-15,3.04,-1.11,-0.17,1.0,-0.01,0.027,-0.002,
304,1,74.468,-0.053,-0.021,0.984,0.0,0.0,0.0,17,-12,-15,3.04,-1.11,-0.17,1.0,-0.01,0.027,-0.002,
305,1,74.478,-0.054,-0.018,0.983,0.0,0.0,0.0,17,-12,-15,3.04,-1.11,-0.17,1.0,-0.01,0.027,-0.002,
306,1,74.488,-0.05,-0.017,0.986,0.0,0.0,0.0,17,-12,-16,3.04,-1.11,-0.17,1.0,-0.01,0.027,-0.002,
307,1,74.498,-0.051,-0.022,0.988,0.0,0.0,0.0,17,-12,-15,3.04,-1.11,-0.17,1.0,-0.01,0.027,-0.002,
308,1,74.508,-0.054,-0.021,0.987,0.0,0.0,0.0,17,-12,-15,3.04,-1.11,-0.17,1.0,-0.01,0.027,-0.002,
309,1,74.518,-0.053,-0.015,0.983,0.0,0.0,0.0,17,-12,-15,3.04,-1.11,-0.17,1.0,-0.01,0.027,-0.002,
310,1,74.528,-0.05,-0.021,0.985,0.0,0.0,0.0,17,-11,-15,3.04,-1.11,-0.17,1.0,-0.01,0.027,-0.002,
311,1,74.538,-0.053,-0.021,0.986,0.0,0.0,0.0,17,-12,-15,3.04,-1.11,-0.17,1.0,-0.01,0.027,-0.002,
312,1,74.548,-0.053,-0.02,0.987,0.0,0.0,0.0,17,-12,-15,3.04,-1.11,-0.17,1.0,-0.01,0.027,-0.002,
313,1,74.558,-0.055,-0.017,0.982,0.0,0.0,0.0,17,-12,-15,3.04,-1.11,-0.17,1.0,-0.01,0.027,-0.002,
314,1,74.568,-0.049,-0.021,0.989,0.0,0.0,0.0,16,-12,-15,3.04,-1.11,-0.17,1.0,-0.01,0.027,-0.002,
315,1,74.578,-0.053,-0.021,0.988,0.0,0.0,0.0,16,-12,-15,3.04,-1.11,-0.17,1.0,-0.01,0.027,-0.002,
316,1,74.588,-0.054,-0.018,0.983,0.0,0.0,0.0,16,-12,-15,3.04,-1.11,-0.17,1.0,-0.01,0.027,-0.002,
317,1,74.598,-0.052,-0.019,0.985,0.0,0.0,0.0,17,-12,-15,3.04,-1.11,-0.17,1.0,-0.01,0.027,-0.002,
318,1,74.608,-0.051,-0.021,0.987,0.0,0.0,0.0,17,-12,-15,3.04,-1.1,-0.17,1.0,-0.01,0.027,-0.002,
319,1,74.618,-0.051,-0.02,0.986,0.0,0.0,0.0,17,-12,-16,3.04,-1.11,-0.17,1.0,-0.01,0.027,-0.002,
320,1,74.628,-0.052,-0.015,0.985,0.0,0.0,0.0,17,-12,-16,3.04,-1.11,-0.17,1.0,-0.01,0.027,-0.002,
321,1,74.638,-0.05,-0.021,0.986,0.0,0.0,0.0,16,-11,-15,3.04,-1.11,-0.17,1.0,-0.01,0.027,-0.002,
322,1,74.648,-0.056,-0.018,0.987,0.0,0.0,0.0,17,-12,-15,3.04,-1.11,-0.17,1.0,-0.01,0.027,-0.002,
323,1,74.658,-0.049,-0.02,0.988,0.0,0.0,0.0,17,-12,-15,3.04,-1.11,-0.17,1.0,-0.01,0.027,-0.002,
324,1,74.668,-0.053,-0.021,0.985,0.0,0.0,0.0,17,-12,-15,3.04,-1.11,-0.17,1.0,-0.01,0.027,-0.002,
325,1,74.678,-0.05,-0.017,0.982,0.0,0.0,0.0,17,-12,-15,3.04,-1.11,-0.17,1.0,-0.01,0.027,-0.002,
326,1,74.688,-0.052,-0.02,0.987,0.0,0.0,0.0,17,-12,-15,3.04,-1.1,-0.17,1.0,-0.01,0.027,-0.002,
327,1,74.698,-0.052,-0.02,0.988,0.0,0.0,0.0,17,-12,-15,3.04,-1.1,-0.17,1.0,-0.01,0.027,-0.002,
328,1,74.708,-0.056,-0.017,0.986,0.0,0.0,0.0,17,-12,-15,3.04,-1.1,-0.17,1.0,-0.01,0.027,-0.002,
329,1,74.718,-0.054,-0.018,0.985,0.0,0.0,0.0,17,-12,-16,3.04,-1.1,-0.17,1.0,-0.01,0.027,-0.002,
330,1,74.728,-0.05,-0.021,0.986,0.0,0.0,0.0,17,-12,-16,3.04,-1.1,-0.17,1.0,-0.01,0.027,-0.002,
331,1,74.738,-0.053,-0.02,0.983,0.0,0.0,0.0,17,-12,-16,3.04,-1.11,-0.17,1.0,-0.01,0.027,-0.002,
332,1,74.748,-0.054,-0.017,0.987,0.0,0.0,0.0,16,-12,-15,3.04,-1.11,-0.17,1.0,-0.01,0.027,-0.002,
333,1,74.758,-0.055,-0.017,0.989,0.0,0.0,0.0,16,-12,-15,3.04,-1.11,-0.17,1.0,-0.01,0.027,-0.002,
334,1,74.768,-0.052,-0.02,0.986,0.0,0.0,0.0,17,-12,-16,3.04,-1.11,-0.17,1.0,-0.01,0.027,-0.002,
335,1,74.778,-0.054,-0.019,0.986,0.0,0.0,0.0,17,-11,-15,3.04,-1.11,-0.17,1.0,-0.01,0.027,-0.002,
336,1,74.788,-0.052,-0.018,0.985,0.0,0.0,0.0,16,-12,-15,3.04,-1.11,-0.17,1.0,-0.01,0.027,-0.002,
337,1,74.798,-0.052,-0.02,0.987,0.0,0.0,0.0,17,-11,-15,3.04,-1.11,-0.17,1.0,-0.01,0.027,-0.002,
338,1,74.808,-0.053,-0.02,0.983,0.0,0.0,0.0,17,-11,-15,3.04,-1.11,-0.17,1.0,-0.01,0.027,-0.002,
339,1,74.818,-0.053,-0.018,0.984,0.0,0.0,0.0,17,-12,-15,3.04,-1.11,-0.17,1.0,-0.01,0.027,-0.002,
340,1,74.828,-0.053,-0.015,0.986,0.0,0.0,0.0,17,-12,-15,3.04,-1.11,-0.17,1.0,-0.01,0.027,-0.002,
341,1,74.838,-0.052,-0.018,0.99,0.0,0.0,0.0,17,-12,-15,3.04,-1.11,-0.17,1.0,-0.01,0.027,-0.002,
342,1,74.848,-0.054,-0.018,0.986,0.0,0.0,0.0,17,-12,-15,3.04,-1.11,-0.17,1.0,-0.01,0.027,-0.002,
343,1,74.858,-0.05,-0.018,0.984,0.0,0.0,0.0,17,-12,-15,3.04,-1.11,-0.17,1.0,-0.01,0.027,-0.002,
344,1,74.868,-0.051,-0.02,0.985,0.0,0.0,0.0,17,-12,-15,3.04,-1.1,-0.17,1.0,-0.01,0.027,-0.002,
345,1,74.878,-0.056,-0.019,0.983,0.0,0.0,0.0,17,-12,-15,3.04,-1.1,-0.17,1.0,-0.01,0.027,-0.002,
346,1,74.888,-0.052,-0.019,0.989,0.0,0.0,0.0,17,-11,-15,3.04,-1.1,-0.17,1.0,-0.01,0.027,-0.002,
347,1,74.898,-0.053,-0.02,0.988,0.0,0.0,0.0,17,-11,-16,3.04,-1.1,-0.17,1.0,-0.01,0.027,-0.002,
348,1,74.909,-0.053,-0.021,0.986,0.0,0.0,0.0,17,-12,-15,3.04,-1.1,-0.17,1.0,-0.01,0.027,-0.002,
349,1,74.919,-0.051,-0.018,0.987,0.0,0.0,0.0,17,-12,-15,3.04,-1.1,-0.17,1.0,-0.01,0.027,-0.002,
350,1,74.929,-0.054,-0.02,0.986,0.0,0.0,0.0,17,-12,-15,3.04,-1.1,-0.17,1.0,-0.01,0.027,-0.002,
351,1,74.939,-0.052,-0.019,0.985,0.0,0.0,0.0,17,-12,-15,3.04,-1.1,-0.17,1.0,-0.01,0.027,-0.002,
352,1,74.949,-0.053,-0.019,0.988,0.0,0.0,0.0,17,-11,-15,3.04,-1.1,-0.17,1.0,-0.01,0.027,-0.002,
353,1,74.959,-0.053,-0.021,0.986,0.0,0.0,0.0,17,-11,-15,3.04,-1.1,-0.17,1.0,-0.01,0.027,-0.002,
354,1,74.969,-0.055,-0.016,0.987,0.0,0.0,0.0,17,-12,-15,3.04,-1.11,-0.17,1.0,-0.01,0.027,-0.002,
355,1,74.979,-0.054,-0.021,0.987,0.0,0.0,0.0,17,-11,-15,3.04,-1.11,-0.17,1.0,-0.01,0.027,-0.002,
356,1,74.989,-0.05,-0.021,0.985,0.0,0.0,0.0,17,-12,-15,3.04,-1.11,-0.17,1.0,-0.01,0.027,-0.002,
357,1,74.999,-0.054,-0.018,0.986,0.0,0.0,0.0,17,-12,-15,3.04,-1.11,-0.17,1.0,-0.01,0.027,-0.002,
358,1,75.009,-0.053,-0.019,0.983,0.0,0.0,0.0,17,-12,-15,3.04,-1.11,-0.17,1.0,-0.01,0.027,-0.002,
359,1,75.019,-0.053,-0.021,0.984,0.0,0.0,0.0,17,-12,-16,3.04,-1.11,-0.17,1.0,-0.01,0.027,-0.002,
360,1,75.029,-0.055,-0.02,0.985,0.0,0.0,0.0,17,-11,-16,3.04,-1.11,-0.17,1.0,-0.01,0.027,-0.002,
361,1,75.039,-0.051,-0.017,0.984,0.0,0.0,0.0,16,-12,-15,3.04,-1.11,-0.17,1.0,-0.01,0.027,-0.002,
362,1,75.049,-0.054,-0.022,0.987,0.0,0.0,0.0,17,-12,-15,3.04,-1.11,-0.17,1.0,-0.01,0.027,-0.002,
363,1,75.059,-0.049,-0.02,0.987,0.0,0.0,0.0,16,-12,-16,3.04,-1.11,-0.17,1.0,-0.01,0.027,-0.002,
364,1,75.069,-0.051,-0.019,0.986,0.0,0.0,0.0,17,-12,-15,3.04,-1.11,-0.17,1.0,-0.01,0.027,-0.002,
365,1,75.079,-0.056,-0.019,0.983,0.0,0.0,0.0,17,-12,-16,3.04,-1.11,-0.17,1.0,-0.01,0.027,-0.002,
366,1,75.089,-0.05,-0.019,0.987,0.0,0.0,0.0,17,-12,-16,3.04,-1.11,-0.17,1.0,-0.01,0.027,-0.002,
367,1,75.099,-0.051,-0.018,0.987,0.0,0.0,0.0,17,-12,-16,3.04,-1.11,-0.17,1.0,-0.01,0.027,-0.002,
368,1,75.109,-0.053,-0.02,0.986,0.0,0.0,0.0,17,-12,-15,3.04,-1.11,-0.17,1.0,-0.01,0.027,-0.002,
369,1,75.119,-0.054,-0.017,0.983,0.0,0.0,0.0,17,-12,-15,3.04,-1.11,-0.17,1.0,-0.01,0.027,-0.002,
370,1,75.129,-0.053,-0.017,0.98,0.0,0.0,0.0,17,-12,-15,3.04,-1.11,-0.17,1.0,-0.01,0.027,-0.002,
371,1,75.139,-0.05,-0.02,0.984,0.0,0.0,0.0,17,-12,-15,3.04,-1.11,-0.17,1.0,-0.01,0.027,-0.002,
372,1,75.149,-0.054,-0.02,0.988,0.0,0.0,0.0,17,-12,-15,3.04,-1.11,-0.17,1.0,-0.01,0.027,-0.002,
373,1,75.159,-0.054,-0.016,0.984,0.0,0.0,0.0,17,-12,-15,3.04,-1.11,-0.17,1.0,-0.01,0.027,-0.002,
374,1,75.169,-0.052,-0.019,0.984,0.0,0.0,0.0,17,-12,-15,3.04,-1.11,-0.17,1.0,-0.01,0.027,-0.002,
375,1,75.179,-0.053,-0.023,0.986,0.0,0.0,0.0,17,-12,-15,3.04,-1.11,-0.17,1.0,-0.01,0.027,-0.002,
376,1,75.189,-0.052,-0.02,0.986,0.0,0.0,0.0,17,-12,-15,3.04,-1.11,-0.17,1.0,-0.01,0.027,-0.002,
377,1,75.199,-0.055,-0.018,0.985,0.0,0.0,0.0,17,-12,-15,3.04,-1.11,-0.17,1.0,-0.01,0.027,-0.002,
378,1,75.209,-0.053,-0.019,0.987,0.0,0.0,0.0,17,-12,-15,3.04,-1.11,-0.17,1.0,-0.01,0.027,-0.002,
379,1,75.219,-0.05,-0.023,0.986,0.0,0.0,0.0,17,-12,-15,3.04,-1.11,-0.17,1.0,-0.01,0.027,-0.002,
380,1,75.229,-0.052,-0.019,0.986,0.0,0.0,0.0,16,-12,-15,3.04,-1.11,-0.17,1.0,-0.01,0.027,-0.002,
381,1,75.239,-0.055,-0.016,0.985,0.0,0.0,0.0,17,-12,-15,3.04,-1.11,-0.17,1.0,-0.01,0.027,-0.002,
382,1,75.249,-0.052,-0.021,0.988,0.0,0.0,0.0,17,-12,-15,3.04,-1.11,-0.17,1.0,-0.01,0.027,-0.002,
383,1,75.259,-0.05,-0.02,0.986,0.0,0.0,0.0,17,-12,-15,3.04,-1.11,-0.17,1.0,-0.01,0.027,-0.002,
384,1,75.269,-0.052,-0.019,0.985,0.0,0.0,0.0,17,-12,-15,3.04,-1.11,-0.17,1.0,-0.01,0.027,-0.002,
385,1,75.279,-0.056,-0.018,0.988,0.0,0.0,0.0,17,-12,-15,3.04,-1.11,-0.17,1.0,-0.01,0.027,-0.002,
386,1,75.289,-0.052,-0.021,0.985,0.0,0.0,0.0,17,-12,-15,3.04,-1.1,-0.17,1.0,-0.01,0.027,-0.002,
387,1,75.299,-0.051,-0.021,0.988,0.0,0.0,0.0,17,-11,-15,3.04,-1.11,-0.17,1.0,-0.01,0.027,-0.002,
388,1,75.309,-0.053,-0.021,0.985,0.0,0.0,0.0,16,-11,-15,3.04,-1.11,-0.17,1.0,-0.01,0.027,-0.002,
389,1,75.319,-0.054,-0.017,0.986,0.0,0.0,0.0,17,-12,-15,3.03,-1.11,-0.17,1.0,-0.01,0.026,-0.002,
390,1,75.329,-0.051,-0.017,0.988,0.0,0.0,0.0,17,-12,-16,3.04,-1.11,-0.17,1.0,-0.01,0.027,-0.002,
391,1,75.339,-0.05,-0.023,0.989,0.0,0.0,0.0,17,-12,-16,3.04,-1.1,-0.17,1.0,-0.01,0.027,-0.002,
392,1,75.349,-0.053,-0.019,0.985,0.0,0.0,0.0,17,-11,-15,3.04,-1.11,-0.17,1.0,-0.01,0.026,-0.002,
393,1,75.359,-0.054,-0.015,0.986,0.0,0.0,0.0,17,-11,-15,3.04,-1.11,-0.17,1.0,-0.01,0.026,-0.002,
394,1,75.369,-0.054,-0.02,0.989,0.0,0.0,0.0,17,-12,-15,3.04,-1.11,-0.17,1.0,-0.01,0.027,-0.002,
395,1,75.379,-0.049,-0.021,0.987,0.0,0.0,0.0,16,-12,-15,3.04,-1.11,-0.17,1.0,-0.01,0.027,-0.002,
396,1,75.389,-0.055,-0.018,0.984,0.0,0.0,0.0,17,-11,-16,3.04,-1.11,-0.17,1.0,-0.01,0.027,-0.002,
397,1,75.399,-0.055,-0.016,0.982,0.0,0.0,0.0,17,-12,-15,3.04,-1.11,-0.17,1.0,-0.01,0.027,-0.002,
398,1,75.409,-0.049,-0.02,0.989,0.0,0.0,0.0,17,-11,-15,3.04,-1.11,-0.17,1.0,-0.01,0.027,-0.002,
399,1,75.419,-0.051,-0.023,0.989,0.0,0.0,0.0,17,-12,-15,3.04,-1.11,-0.17,1.0,-0.01,0.027,-0.002,
400,1,75.429,-0.052,-0.015,0.982,0.0,0.0,0.0,17,-11,-15,3.04,-1.11,-0.17,1.0,-0.01,0.027,-0.002,
401,1,75.439,-0.054,-0.018,0.982,0.0,0.0,0.0,17,-12,-15,3.04,-1.11,-0.17,1.0,-0.01,0.027,-0.002,
402,1,75.449,-0.052,-0.023,0.987,0.0,0.0,0.0,16,-12,-15,3.04,-1.11,-0.17,1.0,-0.01,0.027,-0.002,
403,1,75.459,-0.053,-0.02,0.984,0.0,0.0,0.0,16,-11,-15,3.04,-1.11,-0.17,1.0,-0.01,0.027,-0.002,
404,1,75.469,-0.053,-0.017,0.985,0.0,0.0,0.0,17,-12,-15,3.04,-1.11,-0.17,1.0,-0.01,0.026,-0.002,
405,1,75.479,-0.053,-0.02,0.986,0.0,0.0,0.0,16,-11,-15,3.04,-1.11,-0.17,1.0,-0.01,0.027,-0.002,
406,1,75.489,-0.051,-0.018,0.988,0.0,0.0,0.0,17,-11,-16,3.04,-1.11,-0.17,1.0,-0.01,0.027,-0.002,
407,1,75.499,-0.051,-0.018,0.988,0.0,0.0,0.0,16,-11,-15,3.04,-1.11,-0.17,1.0,-0.01,0.027,-0.002,
408,1,75.509,-0.052,-0.021,0.981,0.0,0.0,0.0,17,-12,-15,3.04,-1.11,-0.17,1.0,-0.01,0.026,-0.002,
409,1,75.519,-0.055,-0.016,0.982,0.0,0.0,0.0,17,-12,-15,3.04,-1.11,-0.17,1.0,-0.01,0.026,-0.002,
410,1,75.529,-0.05,-0.02,0.987,0.0,0.0,0.0,17,-12,-15,3.04,-1.11,-0.17,1.0,-0.01,0.027,-0.002,
411,1,75.539,-0.05,-0.02,0.989,0.0,0.0,0.0,17,-11,-16,3.04,-1.11,-0.17,1.0,-0.01,0.027,-0.002,
412,1,75.549,-0.054,-0.017,0.985,0.0,0.0,0.0,17,-12,-15,3.03,-1.11,-0.17,1.0,-0.01,0.026,-0.002,
413,1,75.559,-0.055,-0.016,0.984,0.0,0.0,0.0,17,-12,-15,3.03,-1.11,-0.17,1.0,-0.01,0.026,-0.002,
414,1,75.569,-0.053,-0.021,0.986,0.0,0.0,0.0,17,-12,-16,3.04,-1.11,-0.17,1.0,-0.01,0.027,-0.002,
415,1,75.579,-0.056,-0.02,0.985,0.0,0.0,0.0,17,-11,-15,3.04,-1.11,-0.17,1.0,-0.01,0.026,-0.002,
416,1,75.589,-0.056,-0.018,0.986,0.0,0.0,0.0,17,-11,-15,3.03,-1.11,-0.17,1.0,-0.01,0.026,-0.002,
417,1,75.599,-0.054,-0.017,0.983,0.0,0.0,0.0,17,-12,-15,3.04,-1.11,-0.17,1.0,-0.01,0.027,-0.002,
418,1,75.609,-0.051,-0.022,0.988,0.0,0.0,0.0,17,-11,-15,3.04,-1.11,-0.17,1.0,-0.01,0.027,-0.002,
419,1,75.619,-0.051,-0.021,0.988,0.0,0.0,0.0,17,-11,-15,3.04,-1.11,-0.17,1.0,-0.01,0.027,-0.002,
420,1,75.629,-0.055,-0.014,0.981,0.0,0.0,0.0,16,-11,-15,3.04,-1.11,-0.17,1.0,-0.01,0.026,-0.002,
421,1,75.639,-0.056,-0.018,0.984,0.0,0.0,0.0,17,-12,-16,3.04,-1.11,-0.17,1.0,-0.01,0.027,-0.002,
422,1,75.649,-0.052,-0.021,0.989,0.0,0.0,0.0,16,-11,-15,3.04,-1.11,-0.17,1.0,-0.01,0.027,-0.002,
423,1,75.659,-0.053,-0.021,0.988,0.0,0.0,0.0,16,-11,-15,3.04,-1.11,-0.17,1.0,-0.01,0.027,-0.002,
424,1,75.669,-0.053,-0.017,0.981,0.0,0.0,0.0,17,-12,-15,3.04,-1.11,-0.17,1.0,-0.01,0.027,-0.002,
425,1,75.679,-0.053,-0.022,0.984,0.0,0.0,0.0,16,-12,-15,3.04,-1.11,-0.17,1.0,-0.01,0.027,-0.002,
426,1,75.689,-0.05,-0.022,0.988,0.0,0.0,0.0,17,-12,-15,3.04,-1.11,-0.17,1.0,-0.01,0.027,-0.002,
427,1,75.699,-0.051,-0.018,0.986,0.0,0.0,0.0,17,-12,-15,3.04,-1.11,-0.17,1.0,-0.01,0.027,-0.002,
428,1,75.709,-0.054,-0.019,0.987,0.0,0.0,0.0,17,-12,-15,3.04,-1.11,-0.17,1.0,-0.01,0.027,-0.002,
429,1,75.719,-0.056,-0.02,0.987,0.0,0.0,0.0,17,-12,-15,3.04,-1.11,-0.17,1.0,-0.01,0.027,-0.002,
430,1,75.729,-0.048,-0.021,0.987,0.0,0.0,0.0,17,-12,-16,3.04,-1.11,-0.17,1.0,-0.01,0.027,-0.002,
431,1,75.739,-0.053,-0.021,0.981,0.0,0.0,0.0,17,-11,-15,3.04,-1.11,-0.17,1.0,-0.01,0.027,-0.002,
432,1,75.749,-0.057,-0.019,0.983,0.0,0.0,0.0,17,-11,-16,3.04,-1.11,-0.17,1.0,-0.01,0.027,-0.002,
433,1,75.759,-0.053,-0.019,0.986,0.0,0.0,0.0,17,-12,-15,3.04,-1.11,-0.17,1.0,-0.01,0.027,-0.002,
434,1,75.769,-0.049,-0.021,0.989,0.0,0.0,0.0,17,-12,-15,3.04,-1.11,-0.17,1.0,-0.01,0.027,-0.002,
435,1,75.779,-0.053,-0.019,0.989,0.0,0.0,0.0,17,-11,-15,3.04,-1.11,-0.17,1.0,-0.01,0.027,-0.002,
436,1,75.789,-0.057,-0.018,0.985,0.0,0.0,0.0,17,-11,-15,3.04,-1.11,-0.17,1.0,-0.01,0.027,-0.002,
437,1,75.799,-0.051,-0.02,0.985,0.0,0.0,0.0,17,-12,-15,3.04,-1.11,-0.17,1.0,-0.01,0.027,-0.002,
438,1,75.809,-0.051,-0.021,0.987,0.0,0.0,0.0,17,-11,-15,3.04,-1.11,-0.17,1.0,-0.01,0.027,-0.002,
439,1,75.819,-0.055,-0.017,0.987,0.0,0.0,0.0,17,-11,-15,3.04,-1.11,-0.17,1.0,-0.01,0.027,-0.002,
440,1,75.829,-0.053,-0.015,0.984,0.0,0.0,0.0,17,-12,-16,3.04,-1.11,-0.17,1.0,-0.01,0.027,-0.002,
441,1,75.839,-0.051,-0.021,0.985,0.0,0.0,0.0,17,-12,-15,3.04,-1.11,-0.17,1.0,-0.01,0.027,-0.002,
442,1,75.849,-0.053,-0.022,0.988,0.0,0.0,0.0,16,-12,-15,3.04,-1.11,-0.17,1.0,-0.01,0.027,-0.002,
443,1,75.859,-0.051,-0.019,0.984,0.0,0.0,0.0,17,-12,-15,3.04,-1.11,-0.17,1.0,-0.01,0.027,-0.002,
444,1,75.869,-0.053,-0.018,0.989,0.0,0.0,0.0,17,-11,-15,3.04,-1.11,-0.17,1.0,-0.01,0.027,-0.002,
445,1,75.879,-0.053,-0.02,0.987,0.0,0.0,0.0,17,-12,-15,3.04,-1.11,-0.17,1.0,-0.01,0.027,-0.002,
446,1,75.889,-0.055,-0.02,0.986,0.0,0.0,0.0,16,-12,-15,3.04,-1.11,-0.17,1.0,-0.01,0.027,-0.002,
447,1,75.899,-0.053,-0.017,0.984,0.0,0.0,0.0,17,-12,-15,3.04,-1.11,-0.17,1.0,-0.01,0.027,-0.002,
448,1,75.909,-0.054,-0.021,0.988,0.0,0.0,0.0,16,-12,-16,3.04,-1.11,-0.17,1.0,-0.01,0.027,-0.002,
449,1,75.919,-0.056,-0.021,0.986,0.0,0.0,0.0,17,-12,-15,3.04,-1.11,-0.17,1.0,-0.01,0.027,-0.002,
450,1,75.929,-0.053,-0.016,0.987,0.0,0.0,0.0,16,-12,-15,3.04,-1.11,-0.17,1.0,-0.01,0.027,-0.002,
451,1,75.939,-0.051,-0.02,0.986,0.0,0.0,0.0,17,-12,-15,3.04,-1.11,-0.17,1.0,-0.01,0.027,-0.002,
452,1,75.949,-0.053,-0.019,0.984,0.0,0.0,0.0,16,-12,-15,3.04,-1.11,-0.17,1.0,-0.01,0.027,-0.002,
453,1,75.959,-0.054,-0.015,0.98,0.0,0.0,0.0,16,-12,-15,3.04,-1.11,-0.17,1.0,-0.01,0.027,-0.002,
454,1,75.969,-0.056,-0.018,0.985,0.0,0.0,0.0,17,-11,-15,3.04,-1.11,-0.17,1.0,-0.01,0.027,-0.002,
455,1,75.979,-0.055,-0.024,0.99,0.0,0.0,0.0,16,-11,-15,3.04,-1.11,-0.17,1.0,-0.01,0.027,-0.002,
456,1,75.989,-0.051,-0.018,0.987,0.0,0.0,0.0,17,-11,-16,3.04,-1.11,-0.17,1.0,-0.01,0.027,-0.002,
457,1,75.999,-0.051,-0.019,0.986,0.0,0.0,0.0,16,-11,-15,3.04,-1.11,-0.17,1.0,-0.01,0.027,-0.002,
458,1,76.009,-0.053,-0.021,0.984,0.0,0.0,0.0,16,-11,-15,3.04,-1.11,-0.17,1.0,-0.01,0.027,-0.002,
459,1,76.019,-0.055,-0.02,0.985,0.0,0.0,0.0,16,-12,-15,3.04,-1.11,-0.17,1.0,-0.01,0.027,-0.002,
460,1,76.029,-0.052,-0.015,0.987,0.0,0.0,0.0,17,-11,-15,3.04,-1.11,-0.17,1.0,-0.01,0.027,-0.002,
461,1,76.039,-0.051,-0.021,0.984,0.0,0.0,0.0,17,-12,-16,3.04,-1.11,-0.17,1.0,-0.01,0.027,-0.002,
462,1,76.049,-0.053,-0.019,0.987,0.0,0.0,0.0,17,-12,-16,3.04,-1.11,-0.17,1.0,-0.01,0.027,-0.002,
463,1,76.059,-0.051,-0.021,0.985,0.0,0.0,0.0,17,-12,-16,3.04,-1.11,-0.17,1.0,-0.01,0.027,-0.002,
464,1,76.069,-0.052,-0.021,0.988,0.0,0.0,0.0,17,-12,-15,3.04,-1.11,-0.17,1.0,-0.01,0.027,-0.002,
465,1,76.079,-0.052,-0.019,0.983,0.0,0.0,0.0,17,-11,-16,3.03,-1.11,-0.17,1.0,-0.01,0.026,-0.002,
466,1,76.089,-0.055,-0.017,0.986,0.0,0.0,0.0,17,-12,-15,3.03,-1.11,-0.17,1.0,-0.01,0.026,-0.002,
467,1,76.099,-0.052,-0.021,0.985,0.0,0.0,0.0,17,-11,-15,3.03,-1.11,-0.17,1.0,-0.01,0.026,-0.002,
468,1,76.109,-0.052,-0.019,0.986,0.0,0.0,0.0,17,-11,-15,3.03,-1.11,-0.17,1.0,-0.01,0.026,-0.002,
469,1,76.119,-0.051,-0.019,0.984,0.0,0.0,0.0,16,-12,-15,3.03,-1.11,-0.17,1.0,-0.01,0.026,-0.002,
470,1,76.129,-0.053,-0.016,0.984,0.0,0.0,0.0,17,-11,-16,3.03,-1.11,-0.17,1.0,-0.01,0.026,-0.002,
471,1,76.139,-0.052,-0.02,0.99,0.0,0.0,0.0,17,-11,-15,3.03,-1.11,-0.17,1.0,-0.01,0.026,-0.002,
472,1,76.149,-0.055,-0.02,0.987,0.0,0.0,0.0,17,-11,-15,3.03,-1.11,-0.17,1.0,-0.01,0.026,-0.002,
473,1,76.159,-0.05,-0.017,0.985,0.0,0.0,0.0,17,-11,-15,3.03,-1.11,-0.17,1.0,-0.01,0.026,-0.002,
474,1,76.169,-0.05,-0.021,0.985,0.0,0.0,0.0,17,-12,-15,3.03,-1.11,-0.17,1.0,-0.01,0.026,-0.002,
475,1,76.179,-0.051,-0.021,0.983,0.0,0.0,0.0,17,-12,-15,3.03,-1.11,-0.17,1.0,-0.01,0.026,-0.002,
476,1,76.189,-0.056,-0.019,0.986,0.0,0.0,0.0,17,-11,-15,3.03,-1.11,-0.17,1.0,-0.01,0.026,-0.002,
477,1,76.199,-0.054,-0.019,0.987,0.0,0.0,0.0,17,-12,-15,3.03,-1.11,-0.17,1.0,-0.01,0.026,-0.002,
478,1,76.209,-0.054,-0.022,0.988,0.0,0.0,0.0,17,-11,-15,3.03,-1.11,-0.17,1.0,-0.01,0.026,-0.002,
479,1,76.219,-0.051,-0.021,0.984,0.0,0.0,0.0,17,-12,-15,3.03,-1.11,-0.17,1.0,-0.01,0.026,-0.002,
480,1,76.229,-0.055,-0.018,0.982,0.0,0.0,0.0,17,-12,-15,3.03,-1.11,-0.17,1.0,-0.01,0.026,-0.002,
481,1,76.239,-0.052,-0.021,0.987,0.0,0.0,0.0,17,-12,-15,3.03,-1.11,-0.17,1.0,-0.01,0.026,-0.002,
482,1,76.249,-0.051,-0.022,0.987,0.0,0.0,0.0,17,-11,-15,3.03,-1.11,-0.17,1.0,-0.01,0.026,-0.002,
483,1,76.259,-0.051,-0.02,0.987,0.0,0.0,0.0,16,-12,-15,3.03,-1.11,-0.17,1.0,-0.01,0.026,-0.002,
484,1,76.269,-0.053,-0.018,0.985,0.0,0.0,0.0,17,-12,-15,3.03,-1.11,-0.17,1.0,-0.01,0.026,-0.002,
485,1,76.279,-0.054,-0.02,0.988,0.0,0.0,0.0,17,-11,-15,3.03,-1.11,-0.17,1.0,-0.01,0.026,-0.002,
486,1,76.289,-0.052,-0.02,0.989,0.0,0.0,0.0,17,-11,-15,3.03,-1.11,-0.17,1.0,-0.01,0.026,-0.002,
487,1,76.299,-0.05,-0.019,0.983,0.0,0.0,0.0,17,-11,-15,3.03,-1.11,-0.17,1.0,-0.01,0.026,-0.002,
488,1,76.309,-0.051,-0.021,0.983,0.0,0.0,0.0,17,-11,-15,3.03,-1.11,-0.17,1.0,-0.01,0.026,-0.002,
489,1,76.319,-0.051,-0.018,0.988,0.0,0.0,0.0,17,-12,-15,3.03,-1.11,-0.17,1.0,-0.01,0.026,-0.002,
490,1,76.329,-0.051,-0.018,0.99,0.0,0.0,0.0,17,-12,-15,3.03,-1.11,-0.17,1.0,-0.01,0.026,-0.002,
491,1,76.339,-0.05,-0.021,0.986,0.0,0.0,0.0,17,-11,-15,3.03,-1.11,-0.17,1.0,-0.01,0.026,-0.002,
492,1,76.349,-0.052,-0.015,0.982,0.0,0.0,0.0,17,-11,-15,3.03,-1.11,-0.17,1.0,-0.01,0.026,-0.002,
493,1,76.359,-0.057,-0.016,0.983,0.0,0.0,0.0,17,-11,-16,3.03,-1.11,-0.17,1.0,-0.01,0.026,-0.002,
494,1,76.369,-0.049,-0.021,0.988,0.0,0.0,0.0,17,-11,-16,3.03,-1.11,-0.17,1.0,-0.01,0.026,-0.002,
495,1,76.379,-0.049,-0.02,0.985,0.0,0.0,0.0,16,-12,-15,3.03,-1.11,-0.17,1.0,-0.01,0.026,-0.002,
496,1,76.389,-0.054,-0.013,0.987,0.0,0.0,0.0,17,-12,-15,3.02,-1.11,-0.17,1.0,-0.01,0.026,-0.002,
497,1,76.399,-0.054,-0.019,0.984,0.0,0.0,0.0,17,-12,-15,3.03,-1.11,-0.17,1.0,-0.01,0.026,-0.002,
498,1,76.409,-0.051,-0.023,0.988,0.0,0.0,0.0,17,-12,-15,3.03,-1.1,-0.17,1.0,-0.01,0.026,-0.002,
499,1,76.419,-0.052,-0.02,0.982,0.0,0.0,0.0,17,-12,-15,3.02,-1.11,-0.17,1.0,-0.01,0.026,-0.002,
500,1,76.429,-0.056,-0.016,0.983,0.0,0.0,0.0,17,-11,-15,3.03,-1.11,-0.17,1.0,-0.01,0.026,-0.002,
501,1,76.439,-0.052,-0.019,0.988,0.0,0.0,0.0,17,-12,-15,3.03,-1.1,-0.17,1.0,-0.01,0.026,-0.002,
502,1,76.449,-0.052,-0.021,0.985,0.0,0.0,0.0,17,-12,-15,3.03,-1.1,-0.17,1.0,-0.01,0.026,-0.002,
503,1,76.459,-0.053,-0.019,0.987,0.0,0.0,0.0,17,-11,-15,3.03,-1.1,-0.17,1.0,-0.01,0.026,-0.002,
504,1,76.469,-0.054,-0.016,0.983,0.0,0.0,0.0,17,-12,-15,3.03,-1.1,-0.17,1.0,-0.01,0.026,-0.002,
505,1,76.479,-0.053,-0.022,0.983,0.0,0.0,0.0,17,-11,-15,3.03,-1.1,-0.17,1.0,-0.01,0.026,-0.002,
506,1,76.489,-0.05,-0.022,0.986,0.0,0.0,0.0,16,-11,-15,3.03,-1.1,-0.17,1.0,-0.01,0.026,-0.002,
507,1,76.499,-0.054,-0.021,0.988,0.0,0.0,0.0,17,-12,-15,3.03,-1.1,-0.17,1.0,-0.01,0.026,-0.002,
508,1,76.509,-0.053,-0.016,0.98,0.0,0.0,0.0,16,-11,-16,3.03,-1.1,-0.17,1.0,-0.01,0.026,-0.002,
509,1,76.519,-0.054,-0.019,0.988,0.0,0.0,0.0,17,-12,-15,3.03,-1.1,-0.17,1.0,-0.01,0.026,-0.002,
510,1,76.529,-0.051,-0.021,0.99,0.0,0.0,0.0,17,-12,-15,3.03,-1.1,-0.17,1.0,-0.01,0.026,-0.002,
511,1,76.539,-0.053,-0.019,0.986,0.0,0.0,0.0,17,-12,-15,3.03,-1.1,-0.17,1.0,-0.01,0.026,-0.002,
512,1,76.549,-0.052,-0.021,0.983,0.0,0.0,0.0,16,-12,-15,3.03,-1.1,-0.17,1.0,-0.01,0.026,-0.002,
513,1,76.559,-0.052,-0.019,0.984,0.0,0.0,0.0,17,-11,-15,3.03,-1.1,-0.17,1.0,-0.01,0.026,-0.002,
514,1,76.569,-0.048,-0.022,0.988,0.0,0.0,0.0,17,-12,-15,3.03,-1.1,-0.17,1.0,-0.01,0.026,-0.002,
515,1,76.579,-0.054,-0.017,0.985,0.0,0.0,0.0,16,-12,-15,3.03,-1.1,-0.17,1.0,-0.01,0.026,-0.002,
516,1,76.589,-0.054,-0.018,0.983,0.0,0.0,0.0,16,-12,-16,3.03,-1.1,-0.17,1.0,-0.01,0.026,-0.002,
517,1,76.599,-0.048,-0.022,0.984,0.0,0.0,0.0,16,-12,-15,3.03,-1.1,-0.17,1.0,-0.01,0.026,-0.002,
518,1,76.609,-0.053,-0.019,0.985,0.0,0.0,0.0,16,-12,-15,3.03,-1.1,-0.17,1.0,-0.01,0.026,-0.002,
519,1,76.619,-0.056,-0.017,0.984,0.0,0.0,0.0,16,-12,-15,3.03,-1.1,-0.17,1.0,-0.01,0.026,-0.002,
520,1,76.629,-0.054,-0.018,0.985,0.0,0.0,0.0,17,-11,-15,3.03,-1.1,-0.17,1.0,-0.01,0.026,-0.002,
521,1,76.639,-0.051,-0.021,0.985,0.0,0.0,0.0,17,-12,-15,3.03,-1.1,-0.17,1.0,-0.01,0.026,-0.002,
522,1,76.649,-0.052,-0.023,0.985,0.0,0.0,0.0,16,-12,-15,3.03,-1.1,-0.17,1.0,-0.01,0.026,-0.002,
523,1,76.659,-0.056,-0.017,0.986,0.0,0.0,0.0,17,-12,-15,3.03,-1.1,-0.17,1.0,-0.01,0.026,-0.002,
524,1,76.669,-0.055,-0.021,0.984,0.0,0.0,0.0,17,-12,-15,3.03,-1.1,-0.17,1.0,-0.01,0.026,-0.002,
525,1,76.679,-0.048,-0.021,0.985,0.0,0.0,0.0,17,-11,-15,3.04,-1.1,-0.17,1.0,-0.01,0.026,-0.002,
526,1,76.689,-0.053,-0.021,0.983,0.0,0.0,0.0,17,-11,-15,3.03,-1.1,-0.17,1.0,-0.01,0.026,-0.002,
527,1,76.699,-0.053,-0.016,0.983,0.0,0.0,0.0,16,-12,-15,3.03,-1.1,-0.17,1.0,-0.01,0.026,-0.002,
528,1,76.709,-0.054,-0.021,0.987,0.0,0.0,0.0,17,-12,-15,3.03,-1.1,-0.17,1.0,-0.01,0.026,-0.002,
529,1,76.719,-0.051,-0.024,0.989,0.0,0.0,0.0,17,-12,-15,3.03,-1.1,-0.17,1.0,-0.01,0.026,-0.002,
530,1,76.729,-0.05,-0.02,0.983,0.0,0.0,0.0,17,-12,-16,3.03,-1.1,-0.17,1.0,-0.01,0.026,-0.002,
531,1,76.739,-0.056,-0.015,0.982,0.0,0.0,0.0,17,-12,-15,3.03,-1.11,-0.17,1.0,-0.01,0.026,-0.002,
532,1,76.749,-0.053,-0.02,0.986,0.0,0.0,0.0,17,-12,-15,3.03,-1.1,-0.17,1.0,-0.01,0.026,-0.002,
533,1,76.759,-0.053,-0.021,0.985,0.0,0.0,0.0,17,-12,-15,3.04,-1.1,-0.17,1.0,-0.01,0.026,-0.002,
534,1,76.769,-0.051,-0.017,0.985,0.0,0.0,0.0,17,-12,-15,3.03,-1.11,-0.17,1.0,-0.01,0.026,-0.002,
535,1,76.779,-0.053,-0.016,0.984,0.0,0.0,0.0,16,-11,-15,3.03,-1.11,-0.17,1.0,-0.01,0.026,-0.002,
536,1,76.789,-0.051,-0.021,0.989,0.0,0.0,0.0,17,-12,-15,3.03,-1.1,-0.17,1.0,-0.01,0.026,-0.002,
537,1,76.799,-0.054,-0.019,0.986,0.0,0.0,0.0,17,-12,-15,3.04,-1.1,-0.17,1.0,-0.01,0.027,-0.002,
538,1,76.809,-0.051,-0.021,0.986,0.0,0.0,0.0,16,-12,-15,3.04,-1.11,-0.17,1.0,-0.01,0.027,-0.002,
539,1,76.819,-0.052,-0.019,0.984,0.0,0.0,0.0,17,-12,-15,3.03,-1.11,-0.17,1.0,-0.01,0.026,-0.002,
540,1,76.829,-0.057,-0.018,0.985,0.0,0.0,0.0,17,-11,-15,3.03,-1.11,-0.17,1.0,-0.01,0.026,-0.002,
541,1,76.839,-0.052,-0.02,0.988,0.0,0.0,0.0,17,-12,-15,3.04,-1.1,-0.17,1.0,-0.01,0.027,-0.002,
542,1,76.849,-0.053,-0.021,0.985,0.0,0.0,0.0,17,-11,-16,3.03,-1.1,-0.17,1.0,-0.01,0.026,-0.002,
543,1,76.859,-0.053,-0.02,0.983,0.0,0.0,0.0,17,-11,-15,3.03,-1.11,-0.17,1.0,-0.01,0.026,-0.002,
544,1,76.869,-0.049,-0.021,0.986,0.0,0.0,0.0,16,-12,-15,3.03,-1.11,-0.17,1.0,-0.01,0.026,-0.002,
545,1,76.879,-0.05,-0.021,0.988,0.0,0.0,0.0,17,-11,-15,3.03,-1.1,-0.17,1.0,-0.01,0.026,-0.002,
546,1,76.889,-0.054,-0.02,0.986,0.0,0.0,0.0,17,-11,-15,3.03,-1.1,-0.17,1.0,-0.01,0.026,-0.002,
547,1,76.899,-0.052,-0.02,0.982,0.0,0.0,0.0,17,-11,-15,3.03,-1.11,-0.17,1.0,-0.01,0.026,-0.002,
548,1,76.909,-0.053,-0.018,0.985,0.0,0.0,0.0,16,-11,-15,3.03,-1.1,-0.17,1.0,-0.01,0.026,-0.002,
549,1,76.919,-0.054,-0.022,0.983,0.0,0.0,0.0,16,-12,-15,3.03,-1.1,-0.17,1.0,-0.01,0.026,-0.002,
550,1,76.929,-0.053,-0.018,0.988,0.0,0.0,0.0,17,-11,-15,3.04,-1.11,-0.17,1.0,-0.01,0.026,-0.002,
551,1,76.939,-0.052,-0.019,0.983,0.0,0.0,0.0,17,-11,-15,3.04,-1.11,-0.17,1.0,-0.01,0.027,-0.002,
552,1,76.949,-0.049,-0.021,0.985,0.0,0.0,0.0,17,-11,-15,3.04,-1.1,-0.17,1.0,-0.01,0.027,-0.002,
553,1,76.959,-0.052,-0.019,0.985,0.0,0.0,0.0,17,-12,-15,3.03,-1.11,-0.17,1.0,-0.01,0.026,-0.002,
554,1,76.969,-0.052,-0.018,0.985,0.0,0.0,0.0,17,-11,-15,3.03,-1.11,-0.17,1.0,-0.01,0.026,-0.002,
555,1,76.979,-0.054,-0.019,0.987,0.0,0.0,0.0,17,-12,-15,3.03,-1.11,-0.17,1.0,-0.01,0.026,-0.002,
556,1,76.989,-0.051,-0.02,0.985,0.0,0.0,0.0,17,-12,-15,3.03,-1.11,-0.17,1.0,-0.01,0.026,-0.002,
557,1,76.999,-0.052,-0.018,0.979,0.0,0.0,0.0,16,-12,-15,3.03,-1.11,-0.17,1.0,-0.01,0.026,-0.002,
558,1,77.009,-0.052,-0.018,0.988,0.0,0.0,0.0,17,-12,-15,3.03,-1.11,-0.17,1.0,-0.01,0.026,-0.002,
559,1,77.019,-0.048,-0.021,0.99,0.0,0.0,0.0,17,-12,-15,3.03,-1.11,-0.17,1.0,-0.01,0.026,-0.002,
560,1,77.029,-0.052,-0.019,0.986,0.0,0.0,0.0,16,-11,-15,3.03,-1.11,-0.17,1.0,-0.01,0.026,-0.002,
561,1,77.039,-0.053,-0.019,0.986,0.0,0.0,0.0,17,-11,-15,3.03,-1.11,-0.17,1.0,-0.01,0.026,-0.002,
562,1,77.049,-0.054,-0.02,0.986,0.0,0.0,0.0,17,-11,-16,3.03,-1.11,-0.17,1.0,-0.01,0.026,-0.002,
563,1,77.059,-0.054,-0.018,0.984,0.0,0.0,0.0,17,-12,-15,3.03,-1.11,-0.17,1.0,-0.01,0.026,-0.002,
564,1,77.069,-0.049,-0.016,0.985,0.0,0.0,0.0,17,-11,-15,3.03,-1.11,-0.17,1.0,-0.01,0.026,-0.002,
565,1,77.079,-0.051,-0.021,0.984,0.0,0.0,0.0,16,-12,-15,3.03,-1.11,-0.17,1.0,-0.01,0.026,-0.002,
566,1,77.089,-0.051,-0.021,0.984,0.0,0.0,0.0,16,-12,-15,3.03,-1.11,-0.17,1.0,-0.01,0.026,-0.002,
567,1,77.099,-0.054,-0.016,0.982,0.0,0.0,0.0,16,-11,-15,3.03,-1.11,-0.17,1.0,-0.01,0.026,-0.002,
568,1,77.109,-0.054,-0.02,0.986,0.0,0.0,0.0,17,-11,-15,3.03,-1.11,-0.17,1.0,-0.01,0.026,-0.002,
569,1,77.119,-0.051,-0.019,0.986,0.0,0.0,0.0,17,-11,-15,3.04,-1.11,-0.17,1.0,-0.01,0.026,-0.002,
570,1,77.13,-0.051,-0.02,0.985,0.0,0.0,0.0,17,-12,-15,3.03,-1.11,-0.17,1.0,-0.01,0.026,-0.002,
571,1,77.14,-0.053,-0.021,0.987,0.0,0.0,0.0,16,-12,-15,3.03,-1.11,-0.17,1.0,-0.01,0.026,-0.002,
572,1,77.149,-0.055,-0.021,0.985,0.0,0.0,0.0,16,-12,-15,3.03,-1.11,-0.17,1.0,-0.01,0.026,-0.002,
573,1,77.16,-0.055,-0.019,0.988,0.0,0.0,0.0,17,-12,-15,3.03,-1.11,-0.17,1.0,-0.01,0.026,-0.002,
574,1,77.17,-0.048,-0.019,0.986,0.0,0.0,0.0,17,-12,-15,3.04,-1.11,-0.17,1.0,-0.01,0.026,-0.002,
575,1,77.18,-0.051,-0.019,0.983,0.0,0.0,0.0,16,-12,-15,3.03,-1.11,-0.17,1.0,-0.01,0.026,-0.002,
576,1,77.19,-0.051,-0.02,0.987,0.0,0.0,0.0,16,-12,-15,3.03,-1.11,-0.17,1.0,-0.01,0.026,-0.002,
577,1,77.2,-0.053,-0.021,0.984,0.0,0.0,0.0,17,-12,-15,3.03,-1.11,-0.17,1.0,-0.01,0.026,-0.002,
578,1,77.21,-0.047,-0.02,0.983,0.0,0.0,0.0,16,-11,-15,3.03,-1.11,-0.17,1.0,-0.01,0.026,-0.002,
579,1,77.219,-0.052,-0.019,0.982,0.0,0.0,0.0,16,-11,-15,3.03,-1.11,-0.17,1.0,-0.01,0.026,-0.002,
580,1,77.23,-0.054,-0.02,0.984,0.0,0.0,0.0,17,-12,-15,3.03,-1.11,-0.17,1.0,-0.01,0.026,-0.002,
581,1,77.239,-0.052,-0.017,0.99,0.0,0.0,0.0,17,-12,-15,3.03,-1.11,-0.17,1.0,-0.01,0.026,-0.002,
582,1,77.249,-0.051,-0.019,0.986,0.0,0.0,0.0,17,-12,-15,3.03,-1.11,-0.17,1.0,-0.01,0.026,-0.002,
583,1,77.259,-0.053,-0.019,0.98,0.0,0.0,0.0,17,-12,-15,3.03,-1.11,-0.17,1.0,-0.01,0.026,-0.002,
584,1,77.269,-0.052,-0.018,0.987,0.0,0.0,0.0,17,-12,-15,3.03,-1.11,-0.17,1.0,-0.01,0.026,-0.002,
585,1,77.279,-0.053,-0.02,0.984,0.0,0.0,0.0,17,-12,-15,3.03,-1.11,-0.17,1.0,-0.01,0.026,-0.002,
586,1,77.289,-0.053,-0.02,0.987,0.0,0.0,0.0,16,-12,-15,3.03,-1.11,-0.17,1.0,-0.01,0.026,-0.002,
587,1,77.299,-0.055,-0.017,0.985,0.0,0.0,0.0,17,-11,-16,3.03,-1.11,-0.17,1.0,-0.01,0.026,-0.002,
588,1,77.309,-0.052,-0.017,0.985,0.0,0.0,0.0,16,-11,-16,3.03,-1.11,-0.17,1.0,-0.01,0.026,-0.002,
589,1,77.32,-0.05,-0.021,0.986,0.0,0.0,0.0,16,-11,-16,3.03,-1.11,-0.17,1.0,-0.01,0.026,-0.002,
590,1,77.33,-0.053,-0.02,0.987,0.0,0.0,0.0,17,-11,-15,3.03,-1.11,-0.17,1.0,-0.01,0.026,-0.002,
591,1,77.34,-0.052,-0.018,0.986,0.0,0.0,0.0,17,-12,-15,3.03,-1.11,-0.17,1.0,-0.01,0.026,-0.002,
592,1,77.35,-0.052,-0.02,0.984,0.0,0.0,0.0,17,-11,-15,3.03,-1.11,-0.17,1.0,-0.01,0.026,-0.002,
593,1,77.36,-0.053,-0.021,0.99,0.0,0.0,0.0,17,-11,-15,3.03,-1.11,-0.17,1.0,-0.01,0.026,-0.002,
594,1,77.37,-0.052,-0.017,0.986,0.0,0.0,0.0,17,-11,-15,3.03,-1.11,-0.17,1.0,-0.01,0.026,-0.002,
595,1,77.38,-0.054,-0.016,0.984,0.0,0.0,0.0,17,-12,-15,3.03,-1.11,-0.17,1.0,-0.01,0.026,-0.002,
596,1,77.39,-0.053,-0.019,0.985,0.0,0.0,0.0,17,-12,-16,3.03,-1.11,-0.17,1.0,-0.01,0.026,-0.002,
597,1,77.4,-0.052,-0.02,0.983,0.0,0.0,0.0,17,-11,-16,3.03,-1.11,-0.17,1.0,-0.01,0.026,-0.002,
598,1,77.41,-0.053,-0.02,0.985,0.0,0.0,0.0,17,-12,-15,3.03,-1.11,-0.17,1.0,-0.01,0.026,-0.002,
599,1,77.42,-0.051,-0.018,0.979,0.0,0.0,0.0,17,-12,-15,3.03,-1.11,-0.17,1.0,-0.01,0.026,-0.002,
600,1,77.43,-0.055,-0.019,0.981,0.0,0.0,0.0,17,-12,-15,3.03,-1.11,-0.17,1.0,-0.01,0.026,-0.002,
601,1,77.44,-0.052,-0.023,0.988,0.0,0.0,0.0,16,-12,-15,3.03,-1.11,-0.17,1.0,-0.01,0.026,-0.002,
602,1,77.45,-0.052,-0.019,0.987,0.0,0.0,0.0,17,-12,-15,3.03,-1.11,-0.17,1.0,-0.01,0.026,-0.002,
603,1,77.46,-0.051,-0.018,0.981,0.0,0.0,0.0,17,-12,-15,3.03,-1.11,-0.17,1.0,-0.01,0.026,-0.002,
604,1,77.47,-0.052,-0.017,0.981,0.0,0.0,0.0,17,-12,-15,3.03,-1.11,-0.17,1.0,-0.01,0.026,-0.002,
605,1,77.48,-0.052,-0.021,0.99,0.0,0.0,0.0,16,-12,-15,3.03,-1.11,-0.17,1.0,-0.01,0.026,-0.002,
606,1,77.49,-0.053,-0.021,0.987,0.0,0.0,0.0,17,-12,-15,3.03,-1.11,-0.17,1.0,-0.01,0.026,-0.002,
607,1,77.5,-0.057,-0.014,0.982,0.0,0.0,0.0,17,-12,-15,3.03,-1.11,-0.17,1.0,-0.01,0.026,-0.002,
608,1,77.51,-0.053,-0.017,0.983,0.0,0.0,0.0,17,-11,-15,3.03,-1.11,-0.17,1.0,-0.01,0.026,-0.002,
609,1,77.52,-0.05,-0.021,0.989,0.0,0.0,0.0,17,-11,-15,3.03,-1.1,-0.17,1.0,-0.01,0.026,-0.002,
610,1,77.53,-0.053,-0.021,0.987,0.0,0.0,0.0,17,-12,-15,3.03,-1.11,-0.17,1.0,-0.01,0.026,-0.002,
611,1,77.54,-0.055,-0.013,0.982,0.0,0.0,0.0,16,-11,-15,3.03,-1.11,-0.17,1.0,-0.01,0.026,-0.002,
612,1,77.55,-0.053,-0.017,0.986,0.0,0.0,0.0,17,-12,-15,3.03,-1.1,-0.17,1.0,-0.01,0.026,-0.002,
613,1,77.56,-0.053,-0.021,0.988,0.0,0.0,0.0,16,-11,-16,3.03,-1.1,-0.17,1.0,-0.01,0.026,-0.002,
614,1,77.57,-0.05,-0.018,0.985,0.0,0.0,0.0,16,-11,-16,3.03,-1.1,-0.17,1.0,-0.01,0.026,-0.002,
615,1,77.58,-0.054,-0.016,0.983,0.0,0.0,0.0,17,-12,-16,3.03,-1.1,-0.17,1.0,-0.01,0.026,-0.002,
616,1,77.59,-0.051,-0.021,0.987,0.0,0.0,0.0,17,-12,-15,3.03,-1.1,-0.17,1.0,-0.01,0.026,-0.002,
617,1,77.6,-0.049,-0.02,0.989,0.0,0.0,0.0,17,-12,-15,3.03,-1.1,-0.17,1.0,-0.01,0.026,-0.002,
618,1,77.61,-0.054,-0.018,0.985,0.0,0.0,0.0,17,-12,-16,3.03,-1.11,-0.17,1.0,-0.01,0.026,-0.002,
619,1,77.62,-0.056,-0.018,0.983,0.0,0.0,0.0,17,-12,-16,3.03,-1.1,-0.17,1.0,-0.01,0.026,-0.002,
620,1,77.63,-0.053,-0.021,0.988,0.0,0.0,0.0,17,-11,-16,3.03,-1.1,-0.17,1.0,-0.01,0.026,-0.002,
621,1,77.64,-0.05,-0.019,0.984,0.0,0.0,0.0,17,-11,-15,3.03,-1.1,-0.17,1.0,-0.01,0.026,-0.002,
622,1,77.65,-0.054,-0.02,0.982,0.0,0.0,0.0,17,-12,-15,3.03,-1.1,-0.17,1.0,-0.01,0.026,-0.002,
623,1,77.66,-0.055,-0.02,0.986,0.0,0.0,0.0,17,-12,-15,3.03,-1.1,-0.17,1.0,-0.01,0.026,-0.002,
624,1,77.67,-0.051,-0.019,0.987,0.0,0.0,0.0,17,-11,-15,3.03,-1.1,-0.17,1.0,-0.01,0.026,-0.002,
625,1,77.68,-0.049,-0.023,0.989,0.0,0.0,0.0,16,-11,-15,3.03,-1.1,-0.17,1.0,-0.01,0.026,-0.002,
626,1,77.69,-0.052,-0.018,0.986,0.0,0.0,0.0,16,-11,-15,3.03,-1.1,-0.17,1.0,-0.01,0.026,-0.002,
627,1,77.7,-0.053,-0.014,0.984,0.0,0.0,0.0,16,-11,-15,3.03,-1.11,-0.17,1.0,-0.01,0.026,-0.002,
628,1,77.71,-0.052,-0.02,0.99,0.0,0.0,0.0,16,-11,-15,3.03,-1.1,-0.17,1.0,-0.01,0.026,-0.002,
629,1,77.72,-0.051,-0.023,0.99,0.0,0.0,0.0,16,-11,-15,3.03,-1.1,-0.17,1.0,-0.01,0.026,-0.002,
630,1,77.73,-0.055,-0.018,0.981,0.0,0.0,0.0,16,-12,-15,3.03,-1.1,-0.17,1.0,-0.01,0.026,-0.002,
631,1,77.74,-0.051,-0.018,0.984,0.0,0.0,0.0,16,-12,-15,3.03,-1.1,-0.17,1.0,-0.01,0.026,-0.002,
632,1,77.75,-0.05,-0.023,0.988,0.0,0.0,0.0,16,-12,-15,3.03,-1.1,-0.17,1.0,-0.01,0.026,-0.002,
633,1,77.76,-0.054,-0.021,0.986,0.0,0.0,0.0,16,-12,-15,3.03,-1.11,-0.17,1.0,-0.01,0.026,-0.002,
634,1,77.77,-0.051,-0.015,0.984,0.0,0.0,0.0,16,-12,-15,3.03,-1.11,-0.17,1.0,-0.01,0.026,-0.002,
635,1,77.78,-0.052,-0.021,0.983,0.0,0.0,0.0,17,-12,-15,3.03,-1.1,-0.17,1.0,-0.01,0.026,-0.002,
636,1,77.79,-0.049,-0.024,0.989,0.0,0.0,0.0,17,-12,-16,3.03,-1.1,-0.17,1.0,-0.01,0.026,-0.002,
637,1,77.8,-0.055,-0.019,0.986,0.0,0.0,0.0,17,-12,-15,3.03,-1.11,-0.17,1.0,-0.01,0.026,-0.002,
638,1,77.81,-0.053,-0.018,0.988,0.0,0.0,0.0,17,-11,-15,3.03,-1.11,-0.17,1.0,-0.01,0.026,-0.002,
639,1,77.82,-0.054,-0.019,0.983,0.0,0.0,0.0,16,-11,-15,3.03,-1.11,-0.17,1.0,-0.01,0.026,-0.002,
640,1,77.83,-0.052,-0.022,0.987,0.0,0.0,0.0,17,-12,-15,3.03,-1.11,-0.17,1.0,-0.01,0.026,-0.002,
641,1,77.84,-0.053,-0.019,0.988,0.0,0.0,0.0,16,-11,-15,3.03,-1.11,-0.17,1.0,-0.01,0.026,-0.002,
642,1,77.85,-0.055,-0.018,0.982,0.0,0.0,0.0,17,-11,-16,3.03,-1.11,-0.17,1.0,-0.01,0.026,-0.002,
643,1,77.86,-0.051,-0.02,0.987,0.0,0.0,0.0,17,-12,-15,3.03,-1.11,-0.17,1.0,-0.01,0.026,-0.002,
644,1,77.87,-0.051,-0.018,0.986,0.0,0.0,0.0,17,-11,-15,3.03,-1.11,-0.17,1.0,-0.01,0.026,-0.002,
645,1,77.88,-0.052,-0.022,0.989,0.0,0.0,0.0,17,-12,-15,3.03,-1.11,-0.17,1.0,-0.01,0.026,-0.002,
646,1,77.89,-0.054,-0.018,0.989,0.0,0.0,0.0,16,-11,-15,3.03,-1.11,-0.17,1.0,-0.01,0.026,-0.002,
647,1,77.9,-0.052,-0.019,0.985,0.0,0.0,0.0,17,-11,-15,3.03,-1.11,-0.17,1.0,-0.01,0.026,-0.002,
648,1,77.91,-0.051,-0.021,0.987,0.0,0.0,0.0,16,-12,-15,3.03,-1.11,-0.17,1.0,-0.01,0.026,-0.002,
649,1,77.92,-0.057,-0.02,0.984,0.0,0.0,0.0,16,-11,-16,3.03,-1.11,-0.17,1.0,-0.01,0.026,-0.002,
650,1,77.93,-0.055,-0.019,0.982,0.0,0.0,0.0,17,-12,-15,3.03,-1.11,-0.17,1.0,-0.01,0.026,-0.002,
651,1,77.94,-0.051,-0.016,0.987,0.0,0.0,0.0,17,-12,-16,3.04,-1.11,-0.17,1.0,-0.01,0.026,-0.002,
652,1,77.95,-0.052,-0.021,0.988,0.0,0.0,0.0,16,-12,-16,3.03,-1.11,-0.17,1.0,-0.01,0.026,-0.002,
653,1,77.96,-0.054,-0.021,0.988,0.0,0.0,0.0,17,-11,-16,3.03,-1.11,-0.17,1.0,-0.01,0.026,-0.002,
654,1,77.97,-0.053,-0.021,0.985,0.0,0.0,0.0,17,-11,-15,3.03,-1.11,-0.17,1.0,-0.01,0.026,-0.002,
655,1,77.98,-0.051,-0.021,0.986,0.0,0.0,0.0,17,-12,-15,3.03,-1.11,-0.17,1.0,-0.01,0.026,-0.002,
656,1,77.99,-0.053,-0.02,0.98,0.0,0.0,0.0,17,-11,-15,3.04,-1.11,-0.17,1.0,-0.01,0.026,-0.002,
657,1,78.0,-0.054,-0.021,0.986,0.0,0.0,0.0,17,-12,-15,3.03,-1.11,-0.17,1.0,-0.01,0.026,-0.002,
658,1,78.01,-0.055,-0.019,0.987,0.0,0.0,0.0,17,-11,-16,3.04,-1.11,-0.17,1.0,-0.01,0.026,-0.002,
659,1,78.02,-0.054,-0.02,0.985,0.0,0.0,0.0,17,-12,-16,3.04,-1.11,-0.17,1.0,-0.01,0.026,-0.002,
660,1,78.03,-0.056,-0.017,0.984,0.0,0.0,0.0,16,-12,-15,3.04,-1.11,-0.17,1.0,-0.01,0.027,-0.002,
661,1,78.04,-0.052,-0.017,0.984,0.0,0.0,0.0,17,-12,-15,3.04,-1.11,-0.17,1.0,-0.01,0.027,-0.002,
662,1,78.05,-0.056,-0.021,0.987,0.0,0.0,0.0,16,-12,-15,3.04,-1.11,-0.17,1.0,-0.01,0.027,-0.002,
663,1,78.06,-0.055,-0.02,0.985,0.0,0.0,0.0,17,-12,-15,3.04,-1.11,-0.17,1.0,-0.01,0.027,-0.002,
664,1,78.07,-0.05,-0.018,0.985,0.0,0.0,0.0,17,-11,-15,3.04,-1.11,-0.17,1.0,-0.01,0.027,-0.002,
665,1,78.08,-0.052,-0.021,0.982,0.0,0.0,0.0,17,-12,-15,3.04,-1.11,-0.17,1.0,-0.01,0.027,-0.002,
666,1,78.09,-0.052,-0.019,0.984,0.0,0.0,0.0,17,-11,-15,3.04,-1.11,-0.17,1.0,-0.01,0.027,-0.002,
667,1,78.1,-0.055,-0.018,0.986,0.0,0.0,0.0,17,-12,-15,3.04,-1.11,-0.17,1.0,-0.01,0.027,-0.002,
668,1,78.11,-0.052,-0.018,0.984,0.0,0.0,0.0,17,-11,-15,3.04,-1.11,-0.17,1.0,-0.01,0.027,-0.002,
669,1,78.12,-0.053,-0.021,0.989,0.0,0.0,0.0,17,-11,-15,3.04,-1.11,-0.17,1.0,-0.01,0.027,-0.002,
670,1,78.13,-0.053,-0.019,0.986,0.0,0.0,0.0,17,-12,-15,3.04,-1.11,-0.17,1.0,-0.01,0.027,-0.002,
671,1,78.14,-0.054,-0.019,0.986,0.0,0.0,0.0,17,-11,-15,3.04,-1.11,-0.17,1.0,-0.01,0.027,-0.002,
672,1,78.15,-0.051,-0.019,0.987,0.0,0.0,0.0,17,-11,-16,3.04,-1.11,-0.17,1.0,-0.01,0.027,-0.002,
673,1,78.16,-0.05,-0.019,0.986,0.0,0.0,0.0,16,-12,-15,3.04,-1.1,-0.17,1.0,-0.01,0.027,-0.002,
674,1,78.17,-0.052,-0.021,0.986,0.0,0.0,0.0,17,-12,-15,3.04,-1.1,-0.17,1.0,-0.01,0.027,-0.002,
675,1,78.18,-0.053,-0.019,0.985,0.0,0.0,0.0,17,-12,-15,3.04,-1.11,-0.17,1.0,-0.01,0.027,-0.002,
676,1,78.19,-0.055,-0.021,0.985,0.0,0.0,0.0,17,-12,-15,3.04,-1.1,-0.17,1.0,-0.01,0.027,-0.002,
677,1,78.2,-0.049,-0.018,0.986,0.0,0.0,0.0,17,-12,-15,3.04,-1.1,-0.17,1.0,-0.01,0.027,-0.002,
678,1,78.21,-0.051,-0.021,0.983,0.0,0.0,0.0,17,-12,-15,3.04,-1.1,-0.17,1.0,-0.01,0.027,-0.002,
679,1,78.22,-0.054,-0.019,0.985,0.0,0.0,0.0,17,-12,-15,3.03,-1.11,-0.17,1.0,-0.01,0.026,-0.002,
680,1,78.23,-0.05,-0.021,0.985,0.0,0.0,0.0,17,-12,-15,3.04,-1.1,-0.17,1.0,-0.01,0.026,-0.002,
681,1,78.24,-0.051,-0.021,0.987,0.0,0.0,0.0,17,-12,-16,3.04,-1.1,-0.17,1.0,-0.01,0.027,-0.002,
682,1,78.25,-0.052,-0.018,0.983,0.0,0.0,0.0,17,-11,-15,3.03,-1.11,-0.17,1.0,-0.01,0.026,-0.002,
683,1,78.26,-0.055,-0.02,0.985,0.0,0.0,0.0,17,-12,-15,3.03,-1.1,-0.17,1.0,-0.01,0.026,-0.002,
684,1,78.27,-0.053,-0.02,0.986,0.0,0.0,0.0,17,-11,-15,3.03,-1.1,-0.17,1.0,-0.01,0.026,-0.002,
685,1,78.28,-0.046,-0.021,0.985,0.0,0.0,0.0,17,-12,-15,3.03,-1.1,-0.17,1.0,-0.01,0.026,-0.002,
686,1,78.29,-0.054,-0.019,0.983,0.0,0.0,0.0,16,-12,-16,3.03,-1.11,-0.17,1.0,-0.01,0.026,-0.002,
687,1,78.3,-0.056,-0.018,0.987,0.0,0.0,0.0,16,-11,-16,3.03,-1.11,-0.17,1.0,-0.01,0.026,-0.002,
688,1,78.31,-0.052,-0.019,0.987,0.0,0.0,0.0,17,-12,-15,3.03,-1.11,-0.17,1.0,-0.01,0.026,-0.002,
689,1,78.32,-0.053,-0.022,0.987,0.0,0.0,0.0,16,-11,-15,3.03,-1.1,-0.17,1.0,-0.01,0.026,-0.002,
690,1,78.33,-0.053,-0.019,0.984,0.0,0.0,0.0,16,-11,-15,3.03,-1.1,-0.17,1.0,-0.01,0.026,-0.002,
691,1,78.34,-0.056,-0.017,0.98,0.0,0.0,0.0,17,-12,-15,3.03,-1.11,-0.17,1.0,-0.01,0.026,-0.002,
692,1,78.35,-0.053,-0.021,0.987,0.0,0.0,0.0,16,-12,-15,3.03,-1.1,-0.17,1.0,-0.01,0.026,-0.002,
693,1,78.36,-0.051,-0.02,0.986,0.0,0.0,0.0,17,-12,-15,3.03,-1.1,-0.17,1.0,-0.01,0.026,-0.002,
694,1,78.37,-0.052,-0.019,0.98,0.0,0.0,0.0,16,-12,-15,3.03,-1.11,-0.17,1.0,-0.01,0.026,-0.002,
695,1,78.38,-0.053,-0.018,0.983,0.0,0.0,0.0,17,-12,-15,3.03,-1.11,-0.17,1.0,-0.01,0.026,-0.002,
696,1,78.39,-0.054,-0.022,0.989,0.0,0.0,0.0,17,-12,-15,3.03,-1.1,-0.17,1.0,-0.01,0.026,-0.002,
697,1,78.4,-0.053,-0.024,0.987,0.0,0.0,0.0,17,-12,-15,3.04,-1.1,-0.17,1.0,-0.01,0.026,-0.002,
698,1,78.41,-0.052,-0.018,0.982,0.0,0.0,0.0,17,-11,-15,3.03,-1.11,-0.17,1.0,-0.01,0.026,-0.002,
699,1,78.42,-0.054,-0.019,0.983,0.0,0.0,0.0,17,-12,-15,3.03,-1.1,-0.17,1.0,-0.01,0.026,-0.002,
700,1,78.43,-0.053,-0.021,0.987,0.0,0.0,0.0,17,-12,-15,3.04,-1.1,-0.17,1.0,-0.01,0.027,-0.002,
701,1,78.44,-0.053,-0.02,0.99,0.0,0.0,0.0,16,-12,-15,3.04,-1.11,-0.17,1.0,-0.01,0.026,-0.002,
702,1,78.45,-0.054,-0.017,0.985,0.0,0.0,0.0,16,-11,-15,3.03,-1.11,-0.17,1.0,-0.01,0.026,-0.002,
703,1,78.46,-0.054,-0.02,0.985,0.0,0.0,0.0,16,-11,-16,3.03,-1.11,-0.17,1.0,-0.01,0.026,-0.002,
704,1,78.47,-0.052,-0.022,0.987,0.0,0.0,0.0,16,-11,-16,3.04,-1.11,-0.17,1.0,-0.01,0.027,-0.002,
705,1,78.48,-0.051,-0.018,0.986,0.0,0.0,0.0,17,-12,-15,3.04,-1.11,-0.17,1.0,-0.01,0.027,-0.002,
706,1,78.49,-0.054,-0.017,0.987,0.0,0.0,0.0,17,-11,-15,3.04,-1.11,-0.17,1.0,-0.01,0.027,-0.002,
707,1,78.5,-0.053,-0.021,0.985,0.0,0.0,0.0,17,-12,-15,3.04,-1.11,-0.17,1.0,-0.01,0.027,-0.002,
708,1,78.51,-0.048,-0.02,0.987,0.0,0.0,0.0,17,-11,-15,3.04,-1.11,-0.17,1.0,-0.01,0.027,-0.002,
709,1,78.52,-0.052,-0.02,0.987,0.0,0.0,0.0,17,-12,-15,3.04,-1.11,-0.17,1.0,-0.01,0.027,-0.002,
710,1,78.53,-0.056,-0.019,0.982,0.0,0.0,0.0,17,-12,-15,3.04,-1.11,-0.17,1.0,-0.01,0.027,-0.002,
711,1,78.54,-0.055,-0.017,0.984,0.0,0.0,0.0,16,-11,-15,3.04,-1.11,-0.17,1.0,-0.01,0.027,-0.002,
712,1,78.55,-0.046,-0.022,0.988,0.0,0.0,0.0,17,-12,-15,3.04,-1.11,-0.17,1.0,-0.01,0.027,-0.002,
713,1,78.56,-0.053,-0.021,0.984,0.0,0.0,0.0,17,-12,-15,3.04,-1.11,-0.17,1.0,-0.01,0.027,-0.002,
714,1,78.57,-0.052,-0.016,0.982,0.0,0.0,0.0,17,-11,-15,3.04,-1.11,-0.17,1.0,-0.01,0.027,-0.002,
715,1,78.58,-0.051,-0.021,0.986,0.0,0.0,0.0,17,-12,-15,3.04,-1.11,-0.17,1.0,-0.01,0.027,-0.002,
716,1,78.59,-0.05,-0.023,0.989,0.0,0.0,0.0,17,-11,-15,3.04,-1.11,-0.17,1.0,-0.01,0.027,-0.002,
717,1,78.6,-0.051,-0.021,0.984,0.0,0.0,0.0,17,-11,-16,3.04,-1.11,-0.17,1.0,-0.01,0.027,-0.002,
718,1,78.61,-0.055,-0.016,0.984,0.0,0.0,0.0,16,-11,-15,3.03,-1.11,-0.17,1.0,-0.01,0.026,-0.002,
719,1,78.62,-0.051,-0.018,0.984,0.0,0.0,0.0,16,-11,-15,3.04,-1.11,-0.17,1.0,-0.01,0.026,-0.002,
720,1,78.63,-0.051,-0.023,0.986,0.0,0.0,0.0,17,-12,-15,3.04,-1.11,-0.17,1.0,-0.01,0.027,-0.002,
721,1,78.64,-0.053,-0.017,0.986,0.0,0.0,0.0,17,-12,-15,3.03,-1.11,-0.17,1.0,-0.01,0.026,-0.002,
722,1,78.65,-0.054,-0.016,0.985,0.0,0.0,0.0,17,-12,-15,3.03,-1.11,-0.17,1.0,-0.01,0.026,-0.002,
723,1,78.66,-0.051,-0.02,0.986,0.0,0.0,0.0,17,-12,-16,3.04,-1.11,-0.17,1.0,-0.01,0.026,-0.002,
724,1,78.67,-0.051,-0.022,0.986,0.0,0.0,0.0,17,-12,-15,3.04,-1.11,-0.17,1.0,-0.01,0.027,-0.002,
725,1,78.68,-0.052,-0.017,0.985,0.0,0.0,0.0,17,-11,-15,3.04,-1.11,-0.17,1.0,-0.01,0.026,-0.002,
726,1,78.69,-0.056,-0.016,0.984,0.0,0.0,0.0,17,-12,-16,3.03,-1.11,-0.17,1.0,-0.01,0.026,-0.002,
727,1,78.7,-0.053,-0.02,0.987,0.0,0.0,0.0,17,-12,-15,3.04,-1.11,-0.17,1.0,-0.01,0.027,-0.002,
728,1,78.71,-0.051,-0.019,0.986,0.0,0.0,0.0,17,-12,-15,3.04,-1.11,-0.17,1.0,-0.01,0.027,-0.002,
729,1,78.72,-0.052,-0.018,0.984,0.0,0.0,0.0,17,-12,-15,3.04,-1.11,-0.17,1.0,-0.01,0.026,-0.002,
730,1,78.73,-0.053,-0.017,0.982,0.0,0.0,0.0,17,-12,-15,3.04,-1.11,-0.17,1.0,-0.01,0.027,-0.002,
731,1,78.74,-0.053,-0.02,0.987,0.0,0.0,0.0,17,-12,-15,3.04,-1.11,-0.17,1.0,-0.01,0.027,-0.002,
732,1,78.75,-0.05,-0.019,0.986,0.0,0.0,0.0,17,-12,-15,3.04,-1.11,-0.17,1.0,-0.01,0.027,-0.002,
733,1,78.76,-0.055,-0.017,0.986,0.0,0.0,0.0,17,-12,-15,3.04,-1.11,-0.17,1.0,-0.01,0.027,-0.002,
734,1,78.77,-0.055,-0.019,0.983,0.0,0.0,0.0,17,-12,-15,3.04,-1.11,-0.17,1.0,-0.01,0.027,-0.002,
735,1,78.78,-0.052,-0.019,0.988,0.0,0.0,0.0,17,-12,-16,3.04,-1.11,-0.17,1.0,-0.01,0.027,-0.002,
736,1,78.79,-0.052,-0.023,0.987,0.0,0.0,0.0,17,-12,-15,3.04,-1.11,-0.17,1.0,-0.01,0.027,-0.002,
737,1,78.8,-0.053,-0.019,0.984,0.0,0.0,0.0,17,-12,-15,3.04,-1.11,-0.17,1.0,-0.01,0.027,-0.002,
738,1,78.81,-0.052,-0.016,0.985,0.0,0.0,0.0,17,-11,-15,3.04,-1.11,-0.17,1.0,-0.01,0.027,-0.002,
739,1,78.82,-0.05,-0.02,0.99,0.0,0.0,0.0,17,-11,-15,3.04,-1.11,-0.17,1.0,-0.01,0.027,-0.002,
740,1,78.83,-0.053,-0.022,0.986,0.0,0.0,0.0,17,-11,-15,3.04,-1.11,-0.17,1.0,-0.01,0.027,-0.002,
741,1,78.84,-0.055,-0.017,0.985,0.0,0.0,0.0,16,-12,-15,3.04,-1.11,-0.17,1.0,-0.01,0.027,-0.002,
742,1,78.85,-0.054,-0.017,0.984,0.0,0.0,0.0,16,-11,-15,3.04,-1.11,-0.17,1.0,-0.01,0.027,-0.002,
743,1,78.86,-0.052,-0.022,0.988,0.0,0.0,0.0,17,-11,-15,3.04,-1.11,-0.17,1.0,-0.01,0.027,-0.002,
744,1,78.87,-0.054,-0.019,0.986,0.0,0.0,0.0,17,-12,-16,3.04,-1.11,-0.17,1.0,-0.01,0.027,-0.002,
745,1,78.88,-0.051,-0.017,0.99,0.0,0.0,0.0,17,-12,-15,3.04,-1.11,-0.17,1.0,-0.01,0.027,-0.002,
746,1,78.89,-0.054,-0.021,0.985,0.0,0.0,0.0,17,-12,-15,3.04,-1.11,-0.17,1.0,-0.01,0.027,-0.002,
747,1,78.9,-0.051,-0.019,0.984,0.0,0.0,0.0,17,-12,-16,3.04,-1.11,-0.17,1.0,-0.01,0.027,-0.002,
748,1,78.91,-0.054,-0.018,0.986,0.0,0.0,0.0,17,-12,-15,3.04,-1.11,-0.17,1.0,-0.01,0.027,-0.002,
749,1,78.92,-0.053,-0.021,0.986,0.0,0.0,0.0,17,-12,-16,3.04,-1.11,-0.17,1.0,-0.01,0.027,-0.002,
750,1,78.93,-0.053,-0.017,0.986,0.0,0.0,0.0,17,-12,-15,3.04,-1.11,-0.17,1.0,-0.01,0.027,-0.002,
751,1,78.94,-0.053,-0.019,0.983,0.0,0.0,0.0,17,-12,-15,3.04,-1.11,-0.17,1.0,-0.01,0.027,-0.002,
752,1,78.95,-0.054,-0.017,0.983,0.0,0.0,0.0,16,-12,-15,3.04,-1.11,-0.17,1.0,-0.01,0.027,-0.002,
753,1,78.96,-0.052,-0.02,0.986,0.0,0.0,0.0,16,-12,-15,3.04,-1.11,-0.17,1.0,-0.01,0.027,-0.002,
754,1,78.97,-0.048,-0.021,0.986,0.0,0.0,0.0,16,-12,-15,3.04,-1.11,-0.17,1.0,-0.01,0.027,-0.002,
755,1,78.98,-0.053,-0.019,0.986,0.0,0.0,0.0,17,-11,-15,3.04,-1.11,-0.17,1.0,-0.01,0.027,-0.002,
756,1,78.99,-0.054,-0.02,0.986,0.0,0.0,0.0,16,-12,-16,3.04,-1.11,-0.17,1.0,-0.01,0.027,-0.002,
757,1,79.0,-0.055,-0.02,0.986,0.0,0.0,0.0,16,-11,-15,3.04,-1.11,-0.17,1.0,-0.01,0.027,-0.002,
758,1,79.01,-0.054,-0.02,0.983,0.0,0.0,0.0,17,-12,-15,3.04,-1.11,-0.17,1.0,-0.01,0.027,-0.002,
759,1,79.02,-0.051,-0.018,0.983,0.0,0.0,0.0,16,-11,-15,3.04,-1.11,-0.17,1.0,-0.01,0.027,-0.002,
760,1,79.03,-0.053,-0.02,0.985,0.0,0.0,0.0,17,-12,-15,3.04,-1.11,-0.17,1.0,-0.01,0.027,-0.002,
761,1,79.04,-0.053,-0.017,0.987,0.0,0.0,0.0,17,-12,-15,3.04,-1.11,-0.17,1.0,-0.01,0.027,-0.002,
762,1,79.05,-0.051,-0.021,0.985,0.0,0.0,0.0,17,-12,-16,3.04,-1.11,-0.17,1.0,-0.01,0.027,-0.002,
763,1,79.06,-0.052,-0.02,0.984,0.0,0.0,0.0,16,-12,-16,3.04,-1.11,-0.17,1.0,-0.01,0.027,-0.002,
764,1,79.07,-0.052,-0.02,0.989,0.0,0.0,0.0,17,-12,-16,3.04,-1.11,-0.17,1.0,-0.01,0.027,-0.002,
765,1,79.08,-0.051,-0.02,0.988,0.0,0.0,0.0,17,-12,-15,3.04,-1.11,-0.17,1.0,-0.01,0.027,-0.002,
766,1,79.09,-0.053,-0.016,0.988,0.0,0.0,0.0,17,-11,-16,3.04,-1.11,-0.17,1.0,-0.01,0.027,-0.002,
767,1,79.1,-0.053,-0.021,0.985,0.0,0.0,0.0,17,-11,-15,3.04,-1.11,-0.17,1.0,-0.01,0.027,-0.002,
768,1,79.11,-0.053,-0.019,0.985,0.0,0.0,0.0,17,-12,-15,3.04,-1.11,-0.17,1.0,-0.01,0.027,-0.002,
769,1,79.12,-0.054,-0.019,0.983,0.0,0.0,0.0,17,-11,-15,3.04,-1.11,-0.17,1.0,-0.01,0.027,-0.002,
770,1,79.13,-0.055,-0.021,0.985,0.0,0.0,0.0,17,-12,-15,3.04,-1.11,-0.17,1.0,-0.01,0.027,-0.002,
771,1,79.14,-0.052,-0.017,0.987,0.0,0.0,0.0,17,-12,-15,3.04,-1.11,-0.17,1.0,-0.01,0.027,-0.002,
772,1,79.15,-0.052,-0.017,0.984,0.0,0.0,0.0,17,-12,-15,3.04,-1.11,-0.17,1.0,-0.01,0.027,-0.002,
773,1,79.16,-0.052,-0.022,0.988,0.0,0.0,0.0,17,-11,-15,3.04,-1.11,-0.17,1.0,-0.01,0.027,-0.002,
774,1,79.17,-0.053,-0.018,0.984,0.0,0.0,0.0,17,-12,-15,3.04,-1.11,-0.17,1.0,-0.01,0.027,-0.002,
775,1,79.18,-0.052,-0.016,0.988,0.0,0.0,0.0,17,-12,-15,3.04,-1.11,-0.17,1.0,-0.01,0.027,-0.002,
776,1,79.19,-0.051,-0.022,0.987,0.0,0.0,0.0,17,-11,-15,3.04,-1.1,-0.17,1.0,-0.01,0.027,-0.002,
777,1,79.2,-0.054,-0.021,0.984,0.0,0.0,0.0,16,-12,-15,3.04,-1.11,-0.17,1.0,-0.01,0.027,-0.002,
778,1,79.21,-0.055,-0.018,0.981,0.0,0.0,0.0,17,-12,-15,3.04,-1.11,-0.17,1.0,-0.01,0.027,-0.002,
779,1,79.22,-0.051,-0.023,0.987,0.0,0.0,0.0,17,-11,-15,3.04,-1.11,-0.17,1.0,-0.01,0.027,-0.002,
780,1,79.23,-0.053,-0.023,0.986,0.0,0.0,0.0,17,-12,-15,3.04,-1.11,-0.17,1.0,-0.01,0.027,-0.002,
781,1,79.24,-0.052,-0.015,0.983,0.0,0.0,0.0,17,-12,-15,3.04,-1.11,-0.17,1.0,-0.01,0.027,-0.002,
782,1,79.25,-0.055,-0.015,0.987,0.0,0.0,0.0,16,-12,-15,3.04,-1.11,-0.17,1.0,-0.01,0.027,-0.002,
783,1,79.26,-0.057,-0.02,0.986,0.0,0.0,0.0,16,-12,-15,3.04,-1.11,-0.17,1.0,-0.01,0.027,-0.002,
784,1,79.27,-0.05,-0.021,0.99,0.0,0.0,0.0,16,-11,-15,3.04,-1.11,-0.17,1.0,-0.01,0.027,-0.002,
785,1,79.28,-0.05,-0.019,0.984,0.0,0.0,0.0,17,-12,-15,3.04,-1.11,-0.17,1.0,-0.01,0.027,-0.002,
786,1,79.29,-0.053,-0.02,0.984,0.0,0.0,0.0,17,-12,-15,3.04,-1.11,-0.17,1.0,-0.01,0.027,-0.002,
787,1,79.3,-0.051,-0.02,0.988,0.0,0.0,0.0,17,-12,-15,3.04,-1.11,-0.17,1.0,-0.01,0.027,-0.002,
788,1,79.31,-0.053,-0.018,0.985,0.0,0.0,0.0,17,-11,-15,3.04,-1.11,-0.17,1.0,-0.01,0.027,-0.002,
789,1,79.32,-0.052,-0.021,0.983,0.0,0.0,0.0,17,-11,-15,3.04,-1.11,-0.17,1.0,-0.01,0.027,-0.002,
790,1,79.33,-0.054,-0.019,0.983,0.0,0.0,0.0,16,-11,-16,3.04,-1.11,-0.17,1.0,-0.01,0.027,-0.002,
791,1,79.34,-0.054,-0.019,0.984,0.0,0.0,0.0,17,-12,-15,3.04,-1.11,-0.17,1.0,-0.01,0.027,-0.002,
792,1,79.35,-0.053,-0.024,0.988,0.0,0.0,0.0,17,-12,-15,3.04,-1.11,-0.17,1.0,-0.01,0.027,-0.002,
793,1,79.36,-0.052,-0.018,0.984,0.0,0.0,0.0,17,-12,-15,3.04,-1.11,-0.17,1.0,-0.01,0.027,-0.002,
794,1,79.37,-0.053,-0.019,0.982,0.0,0.0,0.0,17,-11,-15,3.04,-1.12,-0.17,1.0,-0.01,0.027,-0.002,
795,1,79.38,-0.052,-0.019,0.985,0.0,0.0,0.0,17,-12,-15,3.04,-1.11,-0.17,1.0,-0.01,0.027,-0.002,
796,1,79.39,-0.053,-0.021,0.989,0.0,0.0,0.0,17,-11,-15,3.04,-1.11,-0.17,1.0,-0.01,0.027,-0.002,
797,1,79.4,-0.055,-0.016,0.987,0.0,0.0,0.0,17,-12,-15,3.04,-1.11,-0.17,1.0,-0.01,0.027,-0.002,
798,1,79.41,-0.053,-0.017,0.986,0.0,0.0,0.0,17,-12,-15,3.04,-1.11,-0.17,1.0,-0.01,0.027,-0.002,
799,1,79.42,-0.053,-0.019,0.989,0.0,0.0,0.0,17,-11,-16,3.04,-1.11,-0.17,1.0,-0.01,0.027,-0.002,
800,1,79.43,-0.052,-0.021,0.99,0.0,0.0,0.0,17,-12,-15,3.04,-1.11,-0.17,1.0,-0.01,0.027,-0.002,
801,1,79.44,-0.053,-0.02,0.984,0.0,0.0,0.0,17,-11,-15,3.04,-1.11,-0.17,1.0,-0.01,0.027,-0.002,
802,1,79.45,-0.054,-0.015,0.984,0.0,0.0,0.0,16,-11,-15,3.04,-1.11,-0.17,1.0,-0.01,0.027,-0.002,
803,1,79.46,-0.053,-0.024,0.987,0.0,0.0,0.0,17,-12,-15,3.04,-1.11,-0.17,1.0,-0.01,0.027,-0.002,
804,1,79.47,-0.051,-0.02,0.987,0.0,0.0,0.0,17,-11,-15,3.04,-1.12,-0.17,1.0,-0.01,0.027,-0.002,
805,1,79.48,-0.054,-0.016,0.983,0.0,0.0,0.0,17,-12,-15,3.04,-1.12,-0.17,1.0,-0.01,0.027,-0.002,
806,1,79.49,-0.053,-0.022,0.986,0.0,0.0,0.0,16,-11,-15,3.04,-1.11,-0.17,1.0,-0.01,0.027,-0.002,
807,1,79.5,-0.053,-0.021,0.987,0.0,0.0,0.0,16,-11,-16,3.04,-1.11,-0.17,1.0,-0.01,0.027,-0.002,
808,1,79.51,-0.049,-0.019,0.99,0.0,0.0,0.0,16,-12,-15,3.04,-1.12,-0.17,1.0,-0.01,0.027,-0.002,
809,1,79.52,-0.055,-0.013,0.983,0.0,0.0,0.0,17,-11,-15,3.04,-1.12,-0.17,1.0,-0.01,0.027,-0.002,
810,1,79.53,-0.053,-0.021,0.984,0.0,0.0,0.0,17,-12,-15,3.04,-1.12,-0.17,1.0,-0.01,0.027,-0.002,
811,1,79.54,-0.051,-0.021,0.987,0.0,0.0,0.0,17,-12,-15,3.04,-1.12,-0.17,1.0,-0.01,0.027,-0.002,
812,1,79.55,-0.049,-0.02,0.985,0.0,0.0,0.0,17,-12,-16,3.04,-1.12,-0.17,1.0,-0.01,0.027,-0.002,
813,1,79.56,-0.053,-0.021,0.983,0.0,0.0,0.0,17,-12,-16,3.04,-1.12,-0.17,1.0,-0.01,0.027,-0.002,
814,1,79.57,-0.056,-0.02,0.986,0.0,0.0,0.0,17,-11,-15,3.04,-1.12,-0.17,1.0,-0.01,0.027,-0.002,
815,1,79.58,-0.05,-0.021,0.983,0.0,0.0,0.0,17,-12,-15,3.04,-1.12,-0.17,1.0,-0.01,0.027,-0.002,
816,1,79.59,-0.051,-0.019,0.986,0.0,0.0,0.0,16,-12,-15,3.04,-1.12,-0.17,1.0,-0.01,0.027,-0.002,
817,1,79.6,-0.056,-0.018,0.984,0.0,0.0,0.0,17,-12,-16,3.04,-1.12,-0.17,1.0,-0.01,0.027,-0.002,
818,1,79.61,-0.056,-0.019,0.984,0.0,0.0,0.0,17,-12,-15,3.04,-1.12,-0.17,1.0,-0.01,0.027,-0.002,
819,1,79.62,-0.05,-0.021,0.985,0.0,0.0,0.0,17,-12,-15,3.04,-1.11,-0.17,1.0,-0.01,0.027,-0.002,
820,1,79.631,-0.053,-0.018,0.988,0.0,0.0,0.0,17,-12,-15,3.04,-1.11,-0.17,1.0,-0.01,0.027,-0.002,
821,1,79.641,-0.053,-0.016,0.985,0.0,0.0,0.0,17,-12,-15,3.04,-1.12,-0.17,1.0,-0.01,0.027,-0.002,
822,1,79.65,-0.052,-0.019,0.989,0.0,0.0,0.0,17,-12,-15,3.04,-1.11,-0.17,1.0,-0.01,0.027,-0.002,
823,1,79.66,-0.053,-0.021,0.987,0.0,0.0,0.0,16,-11,-15,3.04,-1.11,-0.17,1.0,-0.01,0.027,-0.002,
824,1,79.67,-0.052,-0.017,0.985,0.0,0.0,0.0,17,-12,-15,3.04,-1.11,-0.17,1.0,-0.01,0.027,-0.002,
825,1,79.68,-0.053,-0.016,0.983,0.0,0.0,0.0,17,-12,-15,3.04,-1.11,-0.17,1.0,-0.01,0.027,-0.002,
826,1,79.69,-0.052,-0.021,0.987,0.0,0.0,0.0,17,-11,-15,3.04,-1.11,-0.17,1.0,-0.01,0.027,-0.002,
frame,id,timestamp(s),accX,accY,accZ,gyrX,gyrY,gyrZ,magX,magY,magZ,eulerRoll,eulerPitch,eulerYaw,quatW,quatX,quatY,quatZ,
1,1,283.602,-0.054,-0.02,0.986,0.0,0.0,0.0,16,-11,-15,3.04,-1.15,-0.17,1.0,-0.01,0.027,-0.002,
2,1,283.612,-0.049,-0.023,0.988,0.0,0.0,0.0,16,-11,-15,3.04,-1.15,-0.17,1.0,-0.01,0.027,-0.002,
3,1,283.622,-0.052,-0.019,0.99,0.0,0.0,0.0,16,-11,-15,3.04,-1.15,-0.17,1.0,-0.01,0.027,-0.002,
4,1,283.632,-0.054,-0.02,0.988,0.0,0.0,0.0,17,-12,-15,3.04,-1.15,-0.17,1.0,-0.01,0.027,-0.002,
5,1,283.642,-0.056,-0.021,0.989,0.0,0.0,0.0,16,-12,-15,3.04,-1.15,-0.17,1.0,-0.01,0.027,-0.002,
6,1,283.652,-0.052,-0.021,0.989,0.0,0.0,0.0,16,-11,-15,3.04,-1.15,-0.17,1.0,-0.01,0.027,-0.002,
7,1,283.662,-0.051,-0.019,0.989,0.0,0.0,0.0,16,-11,-15,3.04,-1.15,-0.17,1.0,-0.01,0.027,-0.002,
8,1,283.672,-0.054,-0.018,0.984,0.0,0.0,0.0,16,-11,-15,3.03,-1.15,-0.17,1.0,-0.01,0.026,-0.002,
9,1,283.682,-0.055,-0.021,0.988,0.0,0.0,0.0,16,-11,-15,3.04,-1.15,-0.17,1.0,-0.01,0.027,-0.002,
10,1,283.692,-0.052,-0.021,0.99,0.0,0.0,0.0,16,-11,-15,3.04,-1.15,-0.17,1.0,-0.01,0.027,-0.002,
11,1,283.702,-0.052,-0.019,0.988,0.0,0.0,0.0,16,-11,-15,3.04,-1.15,-0.17,1.0,-0.01,0.027,-0.002,
12,1,283.712,-0.057,-0.016,0.982,0.0,0.0,0.0,16,-11,-15,3.03,-1.15,-0.17,1.0,-0.01,0.026,-0.002,
13,1,283.722,-0.052,-0.021,0.986,0.0,0.0,0.0,17,-11,-15,3.04,-1.15,-0.17,1.0,-0.01,0.027,-0.002,
14,1,283.732,-0.052,-0.026,0.99,0.0,0.0,0.0,16,-12,-15,3.04,-1.15,-0.17,1.0,-0.01,0.027,-0.002,
15,1,283.742,-0.053,-0.021,0.988,0.0,0.0,0.0,16,-11,-15,3.03,-1.15,-0.17,1.0,-0.01,0.026,-0.002,
16,1,283.752,-0.054,-0.016,0.988,0.0,0.0,0.0,16,-11,-15,3.04,-1.15,-0.17,1.0,-0.01,0.027,-0.002,
17,1,283.762,-0.052,-0.02,0.989,0.0,0.0,0.0,16,-11,-15,3.04,-1.15,-0.17,1.0,-0.01,0.027,-0.002,
18,1,283.772,-0.052,-0.023,0.988,0.0,0.0,0.0,16,-11,-15,3.04,-1.15,-0.17,1.0,-0.01,0.027,-0.002,
19,1,283.782,-0.053,-0.018,0.99,0.0,0.0,0.0,16,-12,-15,3.04,-1.15,-0.17,1.0,-0.01,0.027,-0.002,
20,1,283.792,-0.052,-0.019,0.985,0.0,0.0,0.0,16,-12,-15,3.04,-1.15,-0.17,1.0,-0.01,0.027,-0.002,
21,1,283.802,-0.051,-0.02,0.989,0.0,0.0,0.0,16,-11,-15,3.04,-1.15,-0.17,1.0,-0.01,0.027,-0.002,
22,1,283.812,-0.053,-0.021,0.989,0.0,0.0,0.0,16,-11,-15,3.04,-1.15,-0.17,1.0,-0.01,0.027,-0.002,
23,1,283.822,-0.054,-0.018,0.986,0.0,0.0,0.0,16,-11,-15,3.04,-1.15,-0.17,1.0,-0.01,0.027,-0.002,
24,1,283.832,-0.056,-0.016,0.983,0.0,0.0,0.0,16,-12,-15,3.04,-1.15,-0.17,1.0,-0.01,0.027,-0.002,
25,1,283.842,-0.054,-0.02,0.99,0.0,0.0,0.0,17,-11,-15,3.04,-1.15,-0.17,1.0,-0.01,0.027,-0.002,
26,1,283.852,-0.051,-0.022,0.99,0.0,0.0,0.0,17,-11,-15,3.04,-1.15,-0.17,1.0,-0.01,0.027,-0.002,
27,1,283.862,-0.051,-0.02,0.985,0.0,0.0,0.0,16,-11,-15,3.04,-1.15,-0.17,1.0,-0.01,0.027,-0.002,
28,1,283.872,-0.057,-0.021,0.985,0.0,0.0,0.0,16,-11,-15,3.04,-1.15,-0.17,1.0,-0.01,0.027,-0.002,
29,1,283.882,-0.05,-0.018,0.987,0.0,0.0,0.0,16,-11,-15,3.04,-1.15,-0.17,1.0,-0.01,0.027,-0.002,
30,1,283.892,-0.051,-0.022,0.99,0.0,0.0,0.0,17,-11,-15,3.04,-1.15,-0.17,1.0,-0.01,0.027,-0.002,
31,1,283.902,-0.054,-0.018,0.988,0.0,0.0,0.0,16,-11,-15,3.04,-1.15,-0.17,1.0,-0.01,0.027,-0.002,
32,1,283.912,-0.054,-0.018,0.986,0.0,0.0,0.0,16,-11,-15,3.04,-1.15,-0.17,1.0,-0.01,0.027,-0.002,
33,1,283.922,-0.05,-0.02,0.99,0.0,0.0,0.0,16,-11,-15,3.04,-1.15,-0.17,1.0,-0.01,0.027,-0.002,
34,1,283.932,-0.05,-0.023,0.988,0.0,0.0,0.0,16,-12,-15,3.04,-1.14,-0.17,1.0,-0.01,0.027,-0.002,
35,1,283.942,-0.056,-0.018,0.985,0.0,0.0,0.0,16,-11,-15,3.04,-1.15,-0.17,1.0,-0.01,0.027,-0.002,
36,1,283.952,-0.05,-0.018,0.988,0.0,0.0,0.0,16,-11,-15,3.04,-1.15,-0.17,1.0,-0.01,0.027,-0.002,
37,1,283.962,-0.053,-0.022,0.988,0.0,0.0,0.0,16,-11,-15,3.04,-1.15,-0.17,1.0,-0.01,0.027,-0.002,
38,1,283.972,-0.054,-0.02,0.99,0.0,0.0,0.0,16,-12,-15,3.04,-1.15,-0.17,1.0,-0.01,0.027,-0.002,
39,1,283.982,-0.054,-0.018,0.985,0.0,0.0,0.0,16,-12,-15,3.04,-1.15,-0.17,1.0,-0.01,0.027,-0.002,
40,1,283.992,-0.054,-0.02,0.986,0.0,0.0,0.0,16,-11,-15,3.04,-1.15,-0.17,1.0,-0.01,0.027,-0.002,
41,1,284.002,-0.051,-0.021,0.99,0.0,0.0,0.0,16,-11,-15,3.04,-1.15,-0.17,1.0,-0.01,0.027,-0.002,
42,1,284.012,-0.053,-0.02,0.987,0.0,0.0,0.0,16,-11,-15,3.04,-1.15,-0.17,1.0,-0.01,0.027,-0.002,
43,1,284.022,-0.054,-0.018,0.986,0.0,0.0,0.0,16,-11,-15,3.04,-1.15,-0.17,1.0,-0.01,0.027,-0.002,
44,1,284.032,-0.056,-0.021,0.988,0.0,0.0,0.0,16,-11,-15,3.04,-1.15,-0.17,1.0,-0.01,0.027,-0.002,
45,1,284.042,-0.051,-0.023,0.99,0.0,0.0,0.0,16,-11,-15,3.04,-1.15,-0.17,1.0,-0.01,0.027,-0.002,
46,1,284.052,-0.049,-0.022,0.985,0.0,0.0,0.0,16,-12,-15,3.04,-1.15,-0.17,1.0,-0.01,0.027,-0.002,
47,1,284.062,-0.054,-0.016,0.985,0.0,0.0,0.0,17,-11,-15,3.03,-1.15,-0.17,1.0,-0.01,0.026,-0.002,
48,1,284.072,-0.057,-0.021,0.989,0.0,0.0,0.0,16,-11,-15,3.04,-1.15,-0.17,1.0,-0.01,0.027,-0.002,
49,1,284.082,-0.051,-0.023,0.99,0.0,0.0,0.0,16,-11,-15,3.04,-1.14,-0.17,1.0,-0.01,0.027,-0.002,
50,1,284.092,-0.051,-0.018,0.986,0.0,0.0,0.0,16,-11,-15,3.04,-1.15,-0.17,1.0,-0.01,0.027,-0.002,
51,1,284.102,-0.055,-0.018,0.982,0.0,0.0,0.0,16,-11,-15,3.04,-1.15,-0.17,1.0,-0.01,0.027,-0.002,
52,1,284.112,-0.054,-0.02,0.99,0.0,0.0,0.0,17,-11,-15,3.04,-1.15,-0.17,1.0,-0.01,0.027,-0.002,
53,1,284.122,-0.05,-0.021,0.99,0.0,0.0,0.0,16,-11,-15,3.04,-1.15,-0.17,1.0,-0.01,0.027,-0.002,
54,1,284.132,-0.054,-0.021,0.99,0.0,0.0,0.0,16,-11,-15,3.04,-1.15,-0.17,1.0,-0.01,0.027,-0.002,
55,1,284.142,-0.054,-0.018,0.985,0.0,0.0,0.0,16,-12,-15,3.04,-1.15,-0.17,1.0,-0.01,0.027,-0.002,
56,1,284.152,-0.052,-0.018,0.987,0.0,0.0,0.0,16,-11,-15,3.04,-1.15,-0.17,1.0,-0.01,0.027,-0.002,
57,1,284.162,-0.052,-0.022,0.988,0.0,0.0,0.0,16,-11,-15,3.04,-1.15,-0.17,1.0,-0.01,0.027,-0.002,
58,1,284.172,-0.052,-0.021,0.987,0.0,0.0,0.0,17,-11,-15,3.04,-1.15,-0.17,1.0,-0.01,0.027,-0.002,
59,1,284.182,-0.053,-0.017,0.98,0.0,0.0,0.0,17,-11,-15,3.04,-1.15,-0.17,1.0,-0.01,0.027,-0.002,
60,1,284.192,-0.051,-0.02,0.985,0.0,0.0,0.0,16,-11,-15,3.04,-1.15,-0.17,1.0,-0.01,0.027,-0.002,
61,1,284.202,-0.055,-0.023,0.991,0.0,0.0,0.0,16,-11,-15,3.04,-1.15,-0.17,1.0,-0.01,0.027,-0.002,
62,1,284.212,-0.05,-0.021,0.99,0.0,0.0,0.0,16,-12,-15,3.04,-1.15,-0.17,1.0,-0.01,0.027,-0.002,
63,1,284.222,-0.054,-0.019,0.985,0.0,0.0,0.0,17,-11,-15,3.03,-1.15,-0.17,1.0,-0.01,0.026,-0.002,
64,1,284.232,-0.051,-0.021,0.986,0.0,0.0,0.0,17,-11,-15,3.04,-1.15,-0.17,1.0,-0.01,0.026,-0.002,
65,1,284.242,-0.053,-0.025,0.99,0.0,0.0,0.0,16,-11,-15,3.04,-1.15,-0.17,1.0,-0.01,0.027,-0.002,
66,1,284.252,-0.054,-0.02,0.987,0.0,0.0,0.0,17,-11,-15,3.04,-1.15,-0.17,1.0,-0.01,0.027,-0.002,
67,1,284.262,-0.053,-0.014,0.984,0.0,0.0,0.0,16,-11,-15,3.04,-1.15,-0.17,1.0,-0.01,0.027,-0.002,
68,1,284.272,-0.051,-0.021,0.989,0.0,0.0,0.0,16,-11,-15,3.04,-1.15,-0.17,1.0,-0.01,0.027,-0.002,
69,1,284.282,-0.054,-0.02,0.992,0.0,0.0,0.0,16,-11,-15,3.04,-1.15,-0.17,1.0,-0.01,0.027,-0.002,
70,1,284.292,-0.05,-0.018,0.987,0.0,0.0,0.0,17,-11,-15,3.04,-1.15,-0.17,1.0,-0.01,0.027,-0.002,
71,1,284.302,-0.057,-0.018,0.985,0.0,0.0,0.0,16,-11,-15,3.04,-1.15,-0.17,1.0,-0.01,0.027,-0.002,
72,1,284.312,-0.052,-0.021,0.985,0.0,0.0,0.0,17,-11,-15,3.04,-1.15,-0.17,1.0,-0.01,0.027,-0.002,
73,1,284.322,-0.051,-0.02,0.988,0.0,0.0,0.0,16,-11,-15,3.04,-1.15,-0.17,1.0,-0.01,0.027,-0.002,
74,1,284.332,-0.052,-0.02,0.987,0.0,0.0,0.0,16,-11,-15,3.04,-1.15,-0.17,1.0,-0.01,0.026,-0.002,
75,1,284.342,-0.055,-0.021,0.987,0.0,0.0,0.0,16,-11,-15,3.04,-1.15,-0.17,1.0,-0.01,0.027,-0.002,
76,1,284.352,-0.053,-0.019,0.986,0.0,0.0,0.0,17,-11,-15,3.04,-1.15,-0.17,1.0,-0.01,0.027,-0.002,
77,1,284.362,-0.05,-0.018,0.988,0.0,0.0,0.0,17,-11,-15,3.04,-1.15,-0.17,1.0,-0.01,0.027,-0.002,
78,1,284.372,-0.052,-0.021,0.99,0.0,0.0,0.0,16,-11,-15,3.04,-1.15,-0.17,1.0,-0.01,0.027,-0.002,
79,1,284.382,-0.052,-0.02,0.986,0.0,0.0,0.0,16,-11,-15,3.04,-1.15,-0.17,1.0,-0.01,0.027,-0.002,
80,1,284.392,-0.052,-0.017,0.99,0.0,0.0,0.0,17,-12,-15,3.04,-1.15,-0.17,1.0,-0.01,0.027,-0.002,
81,1,284.402,-0.051,-0.021,0.988,0.0,0.0,0.0,16,-12,-15,3.04,-1.14,-0.17,1.0,-0.01,0.027,-0.002,
82,1,284.412,-0.055,-0.019,0.988,0.0,0.0,0.0,16,-11,-15,3.04,-1.15,-0.17,1.0,-0.01,0.027,-0.002,
83,1,284.422,-0.051,-0.021,0.988,0.0,0.0,0.0,16,-11,-15,3.04,-1.15,-0.17,1.0,-0.01,0.027,-0.002,
84,1,284.432,-0.054,-0.017,0.988,0.0,0.0,0.0,16,-11,-15,3.04,-1.15,-0.17,1.0,-0.01,0.027,-0.002,
85,1,284.442,-0.054,-0.022,0.984,0.0,0.0,0.0,16,-11,-15,3.04,-1.14,-0.17,1.0,-0.01,0.027,-0.002,
86,1,284.452,-0.051,-0.019,0.988,0.0,0.0,0.0,17,-11,-15,3.04,-1.15,-0.17,1.0,-0.01,0.027,-0.002,
87,1,284.462,-0.054,-0.02,0.984,0.0,0.0,0.0,17,-11,-16,3.04,-1.14,-0.17,1.0,-0.01,0.027,-0.002,
88,1,284.472,-0.052,-0.021,0.987,0.0,0.0,0.0,16,-12,-15,3.04,-1.14,-0.17,1.0,-0.01,0.027,-0.002,
89,1,284.482,-0.055,-0.021,0.989,0.0,0.0,0.0,16,-12,-15,3.04,-1.14,-0.17,1.0,-0.01,0.027,-0.002,
90,1,284.492,-0.05,-0.02,0.989,0.0,0.0,0.0,16,-11,-15,3.04,-1.15,-0.17,1.0,-0.01,0.027,-0.002,
91,1,284.502,-0.051,-0.021,0.987,0.0,0.0,0.0,16,-12,-15,3.04,-1.15,-0.17,1.0,-0.01,0.027,-0.002,
92,1,284.512,-0.052,-0.021,0.988,0.0,0.0,0.0,16,-12,-15,3.04,-1.15,-0.17,1.0,-0.01,0.027,-0.002,
93,1,284.522,-0.055,-0.016,0.987,0.0,0.0,0.0,16,-11,-15,3.04,-1.15,-0.17,1.0,-0.01,0.027,-0.002,
94,1,284.532,-0.052,-0.021,0.988,0.0,0.0,0.0,16,-11,-15,3.04,-1.15,-0.17,1.0,-0.01,0.027,-0.002,
95,1,284.542,-0.05,-0.021,0.989,0.0,0.0,0.0,16,-12,-15,3.04,-1.15,-0.17,1.0,-0.01,0.027,-0.002,
96,1,284.552,-0.055,-0.018,0.986,0.0,0.0,0.0,16,-12,-15,3.04,-1.15,-0.17,1.0,-0.01,0.027,-0.002,
97,1,284.562,-0.052,-0.019,0.985,0.0,0.0,0.0,16,-12,-15,3.04,-1.15,-0.17,1.0,-0.01,0.027,-0.002,
98,1,284.572,-0.051,-0.022,0.99,0.0,0.0,0.0,16,-11,-15,3.04,-1.14,-0.17,1.0,-0.01,0.027,-0.002,
99,1,284.582,-0.055,-0.019,0.986,0.0,0.0,0.0,16,-11,-15,3.04,-1.15,-0.17,1.0,-0.01,0.027,-0.002,
100,1,284.592,-0.054,-0.016,0.988,0.0,0.0,0.0,16,-11,-15,3.04,-1.15,-0.17,1.0,-0.01,0.027,-0.002,
101,1,284.602,-0.054,-0.022,0.984,0.0,0.0,0.0,16,-11,-15,3.04,-1.15,-0.17,1.0,-0.01,0.027,-0.002,
102,1,284.612,-0.054,-0.02,0.986,0.0,0.0,0.0,16,-11,-15,3.04,-1.15,-0.17,1.0,-0.01,0.027,-0.002,
103,1,284.622,-0.051,-0.019,0.985,0.0,0.0,0.0,17,-11,-15,3.04,-1.15,-0.17,1.0,-0.01,0.027,-0.002,
104,1,284.632,-0.055,-0.021,0.986,0.0,0.0,0.0,17,-11,-15,3.04,-1.15,-0.17,1.0,-0.01,0.027,-0.002,
105,1,284.642,-0.054,-0.019,0.987,0.0,0.0,0.0,17,-11,-15,3.04,-1.15,-0.17,1.0,-0.01,0.027,-0.002,
106,1,284.652,-0.052,-0.021,0.987,0.0,0.0,0.0,17,-11,-15,3.04,-1.15,-0.17,1.0,-0.01,0.027,-0.002,
107,1,284.662,-0.053,-0.02,0.988,0.0,0.0,0.0,17,-11,-15,3.04,-1.15,-0.17,1.0,-0.01,0.027,-0.002,
108,1,284.672,-0.056,-0.018,0.988,0.0,0.0,0.0,17,-11,-15,3.04,-1.15,-0.17,1.0,-0.01,0.027,-0.002,
109,1,284.682,-0.056,-0.021,0.986,0.0,0.0,0.0,17,-11,-15,3.04,-1.15,-0.17,1.0,-0.01,0.027,-0.002,
110,1,284.692,-0.052,-0.021,0.99,0.0,0.0,0.0,16,-11,-15,3.04,-1.15,-0.17,1.0,-0.01,0.027,-0.002,
111,1,284.702,-0.052,-0.019,0.989,0.0,0.0,0.0,16,-11,-15,3.04,-1.15,-0.17,1.0,-0.01,0.027,-0.002,
112,1,284.712,-0.051,-0.02,0.986,0.0,0.0,0.0,17,-12,-15,3.04,-1.15,-0.17,1.0,-0.01,0.027,-0.002,
113,1,284.722,-0.052,-0.019,0.99,0.0,0.0,0.0,16,-11,-15,3.04,-1.15,-0.17,1.0,-0.01,0.027,-0.002,
114,1,284.733,-0.051,-0.022,0.99,0.0,0.0,0.0,16,-11,-15,3.04,-1.14,-0.17,1.0,-0.01,0.027,-0.002,
115,1,284.742,-0.051,-0.019,0.986,0.0,0.0,0.0,16,-12,-15,3.04,-1.14,-0.17,1.0,-0.01,0.027,-0.002,
116,1,284.752,-0.053,-0.016,0.983,0.0,0.0,0.0,16,-11,-15,3.04,-1.15,-0.17,1.0,-0.01,0.027,-0.002,
117,1,284.762,-0.054,-0.021,0.984,0.0,0.0,0.0,16,-11,-15,3.04,-1.15,-0.17,1.0,-0.01,0.027,-0.002,
118,1,284.772,-0.051,-0.022,0.986,0.0,0.0,0.0,16,-11,-15,3.04,-1.14,-0.17,1.0,-0.01,0.027,-0.002,
119,1,284.782,-0.052,-0.017,0.987,0.0,0.0,0.0,16,-11,-15,3.04,-1.15,-0.17,1.0,-0.01,0.027,-0.002,
120,1,284.792,-0.055,-0.017,0.985,0.0,0.0,0.0,16,-11,-15,3.04,-1.15,-0.17,1.0,-0.01,0.027,-0.002,
121,1,284.802,-0.054,-0.02,0.988,0.0,0.0,0.0,16,-11,-15,3.04,-1.15,-0.17,1.0,-0.01,0.027,-0.002,
122,1,284.812,-0.049,-0.021,0.991,0.0,0.0,0.0,16,-11,-15,3.04,-1.14,-0.17,1.0,-0.01,0.027,-0.002,
123,1,284.822,-0.052,-0.021,0.989,0.0,0.0,0.0,17,-11,-15,3.04,-1.15,-0.17,1.0,-0.01,0.027,-0.002,
124,1,284.832,-0.052,-0.017,0.983,0.0,0.0,0.0,16,-12,-15,3.04,-1.15,-0.17,1.0,-0.01,0.027,-0.002,
125,1,284.842,-0.056,-0.022,0.987,0.0,0.0,0.0,17,-11,-15,3.04,-1.15,-0.17,1.0,-0.01,0.027,-0.002,
126,1,284.852,-0.049,-0.022,0.988,0.0,0.0,0.0,16,-11,-15,3.04,-1.15,-0.17,1.0,-0.01,0.027,-0.002,
127,1,284.862,-0.052,-0.017,0.99,0.0,0.0,0.0,16,-12,-15,3.04,-1.15,-0.17,1.0,-0.01,0.027,-0.002,
128,1,284.872,-0.052,-0.016,0.984,0.0,0.0,0.0,17,-11,-15,3.04,-1.15,-0.17,1.0,-0.01,0.027,-0.002,
129,1,284.883,-0.054,-0.018,0.988,0.0,0.0,0.0,16,-12,-15,3.04,-1.15,-0.17,1.0,-0.01,0.027,-0.002,
130,1,284.892,-0.051,-0.021,0.986,0.0,0.0,0.0,16,-12,-15,3.04,-1.15,-0.17,1.0,-0.01,0.027,-0.002,
131,1,284.902,-0.053,-0.021,0.987,0.0,0.0,0.0,16,-11,-15,3.04,-1.15,-0.17,1.0,-0.01,0.027,-0.002,
132,1,284.912,-0.055,-0.017,0.987,0.0,0.0,0.0,17,-11,-15,3.04,-1.15,-0.17,1.0,-0.01,0.027,-0.002,
133,1,284.922,-0.051,-0.02,0.99,0.0,0.0,0.0,16,-11,-15,3.04,-1.14,-0.17,1.0,-0.01,0.027,-0.002,
134,1,284.933,-0.05,-0.022,0.989,0.0,0.0,0.0,16,-11,-15,3.04,-1.14,-0.17,1.0,-0.01,0.027,-0.002,
135,1,284.942,-0.056,-0.019,0.991,0.0,0.0,0.0,16,-11,-15,3.03,-1.15,-0.17,1.0,-0.01,0.026,-0.002,
136,1,284.952,-0.053,-0.017,0.987,0.0,0.0,0.0,16,-12,-15,3.03,-1.15,-0.17,1.0,-0.01,0.026,-0.002,
137,1,284.963,-0.051,-0.023,0.987,0.0,0.0,0.0,16,-11,-15,3.04,-1.15,-0.17,1.0,-0.01,0.027,-0.002,
138,1,284.973,-0.054,-0.021,0.987,0.0,0.0,0.0,16,-12,-15,3.04,-1.15,-0.17,1.0,-0.01,0.027,-0.002,
139,1,284.983,-0.054,-0.02,0.985,0.0,0.0,0.0,16,-11,-15,3.03,-1.15,-0.17,1.0,-0.01,0.026,-0.002,
140,1,284.993,-0.056,-0.016,0.986,0.0,0.0,0.0,16,-12,-15,3.03,-1.15,-0.17,1.0,-0.01,0.026,-0.002,
141,1,285.003,-0.051,-0.021,0.989,0.0,0.0,0.0,16,-12,-15,3.03,-1.15,-0.17,1.0,-0.01,0.026,-0.002,
142,1,285.013,-0.052,-0.021,0.99,0.0,0.0,0.0,16,-12,-15,3.03,-1.15,-0.17,1.0,-0.01,0.026,-0.002,
143,1,285.023,-0.054,-0.02,0.989,0.0,0.0,0.0,16,-12,-15,3.03,-1.15,-0.17,1.0,-0.01,0.026,-0.002,
144,1,285.033,-0.054,-0.015,0.984,0.0,0.0,0.0,16,-12,-15,3.03,-1.15,-0.17,1.0,-0.01,0.026,-0.002,
145,1,285.043,-0.053,-0.02,0.987,0.0,0.0,0.0,16,-11,-15,3.03,-1.15,-0.17,1.0,-0.01,0.026,-0.002,
146,1,285.053,-0.052,-0.023,0.989,0.0,0.0,0.0,17,-11,-15,3.03,-1.15,-0.17,1.0,-0.01,0.026,-0.002,
147,1,285.063,-0.055,-0.018,0.985,0.0,0.0,0.0,16,-11,-15,3.03,-1.15,-0.17,1.0,-0.01,0.026,-0.002,
148,1,285.073,-0.053,-0.02,0.988,0.0,0.0,0.0,16,-11,-15,3.03,-1.15,-0.17,1.0,-0.01,0.026,-0.002,
149,1,285.083,-0.051,-0.024,0.988,0.0,0.0,0.0,16,-11,-15,3.03,-1.15,-0.17,1.0,-0.01,0.026,-0.002,
150,1,285.093,-0.052,-0.021,0.99,0.0,0.0,0.0,17,-11,-15,3.03,-1.15,-0.17,1.0,-0.01,0.026,-0.002,
151,1,285.103,-0.051,-0.02,0.99,0.0,0.0,0.0,17,-12,-15,3.03,-1.15,-0.17,1.0,-0.01,0.026,-0.002,
152,1,285.113,-0.051,-0.021,0.989,0.0,0.0,0.0,16,-12,-15,3.03,-1.15,-0.17,1.0,-0.01,0.026,-0.002,
153,1,285.123,-0.053,-0.021,0.988,0.0,0.0,0.0,16,-11,-15,3.03,-1.15,-0.17,1.0,-0.01,0.026,-0.002,
154,1,285.133,-0.049,-0.021,0.988,0.0,0.0,0.0,16,-11,-15,3.03,-1.15,-0.17,1.0,-0.01,0.026,-0.002,
155,1,285.143,-0.053,-0.021,0.989,0.0,0.0,0.0,16,-11,-15,3.03,-1.15,-0.17,1.0,-0.01,0.026,-0.002,
156,1,285.153,-0.055,-0.019,0.988,0.0,0.0,0.0,16,-11,-15,3.03,-1.15,-0.17,1.0,-0.01,0.026,-0.002,
157,1,285.163,-0.05,-0.021,0.99,0.0,0.0,0.0,16,-11,-15,3.03,-1.15,-0.17,1.0,-0.01,0.026,-0.002,
158,1,285.173,-0.054,-0.022,0.988,0.0,0.0,0.0,16,-11,-15,3.03,-1.15,-0.17,1.0,-0.01,0.026,-0.002,
159,1,285.183,-0.054,-0.019,0.981,0.0,0.0,0.0,16,-12,-15,3.03,-1.15,-0.17,1.0,-0.01,0.026,-0.002,
160,1,285.193,-0.053,-0.016,0.987,0.0,0.0,0.0,17,-11,-15,3.03,-1.15,-0.17,1.0,-0.01,0.026,-0.002,
161,1,285.203,-0.05,-0.022,0.988,0.0,0.0,0.0,17,-11,-15,3.04,-1.15,-0.17,1.0,-0.01,0.027,-0.002,
162,1,285.213,-0.053,-0.021,0.989,0.0,0.0,0.0,16,-11,-15,3.03,-1.15,-0.17,1.0,-0.01,0.026,-0.002,
163,1,285.223,-0.054,-0.017,0.986,0.0,0.0,0.0,16,-11,-15,3.03,-1.15,-0.17,1.0,-0.01,0.026,-0.002,
164,1,285.233,-0.051,-0.02,0.989,0.0,0.0,0.0,16,-11,-15,3.03,-1.15,-0.17,1.0,-0.01,0.026,-0.002,
165,1,285.243,-0.049,-0.025,0.99,0.0,0.0,0.0,16,-12,-15,3.03,-1.15,-0.17,1.0,-0.01,0.026,-0.002,
166,1,285.253,-0.054,-0.016,0.987,0.0,0.0,0.0,16,-12,-15,3.03,-1.15,-0.17,1.0,-0.01,0.026,-0.002,
167,1,285.263,-0.052,-0.018,0.986,0.0,0.0,0.0,17,-11,-15,3.03,-1.15,-0.17,1.0,-0.01,0.026,-0.002,
168,1,285.273,-0.052,-0.021,0.986,0.0,0.0,0.0,16,-11,-15,3.03,-1.15,-0.17,1.0,-0.01,0.026,-0.002,
169,1,285.283,-0.053,-0.02,0.987,0.0,0.0,0.0,16,-12,-15,3.03,-1.15,-0.17,1.0,-0.01,0.026,-0.002,
170,1,285.293,-0.052,-0.021,0.986,0.0,0.0,0.0,16,-11,-15,3.03,-1.15,-0.17,1.0,-0.01,0.026,-0.002,
171,1,285.303,-0.053,-0.02,0.987,0.0,0.0,0.0,17,-11,-15,3.03,-1.15,-0.17,1.0,-0.01,0.026,-0.002,
172,1,285.313,-0.051,-0.021,0.989,0.0,0.0,0.0,17,-11,-15,3.03,-1.15,-0.17,1.0,-0.01,0.026,-0.002,
173,1,285.323,-0.053,-0.02,0.989,0.0,0.0,0.0,17,-12,-15,3.03,-1.15,-0.17,1.0,-0.01,0.026,-0.002,
174,1,285.333,-0.056,-0.021,0.986,0.0,0.0,0.0,17,-11,-15,3.03,-1.15,-0.17,1.0,-0.01,0.026,-0.002,
175,1,285.343,-0.053,-0.02,0.987,0.0,0.0,0.0,17,-12,-15,3.03,-1.15,-0.17,1.0,-0.01,0.026,-0.002,
176,1,285.353,-0.055,-0.019,0.989,0.0,0.0,0.0,16,-11,-15,3.04,-1.15,-0.17,1.0,-0.01,0.026,-0.002,
177,1,285.363,-0.054,-0.02,0.985,0.0,0.0,0.0,16,-11,-15,3.04,-1.15,-0.17,1.0,-0.01,0.027,-0.002,
178,1,285.373,-0.05,-0.023,0.988,0.0,0.0,0.0,17,-11,-15,3.04,-1.15,-0.17,1.0,-0.01,0.027,-0.002,
179,1,285.383,-0.052,-0.02,0.989,0.0,0.0,0.0,16,-11,-15,3.03,-1.15,-0.17,1.0,-0.01,0.026,-0.002,
180,1,285.393,-0.052,-0.017,0.983,0.0,0.0,0.0,16,-12,-15,3.03,-1.15,-0.17,1.0,-0.01,0.026,-0.002,
181,1,285.403,-0.049,-0.021,0.988,0.0,0.0,0.0,17,-11,-15,3.03,-1.15,-0.17,1.0,-0.01,0.026,-0.002,
182,1,285.413,-0.052,-0.021,0.988,0.0,0.0,0.0,16,-11,-15,3.03,-1.15,-0.17,1.0,-0.01,0.026,-0.002,
183,1,285.423,-0.055,-0.021,0.986,0.0,0.0,0.0,16,-11,-15,3.03,-1.15,-0.17,1.0,-0.01,0.026,-0.002,
184,1,285.433,-0.049,-0.021,0.986,0.0,0.0,0.0,17,-11,-15,3.03,-1.15,-0.17,1.0,-0.01,0.026,-0.002,
185,1,285.443,-0.052,-0.02,0.987,0.0,0.0,0.0,17,-12,-15,3.03,-1.15,-0.17,1.0,-0.01,0.026,-0.002,
186,1,285.453,-0.052,-0.021,0.984,0.0,0.0,0.0,16,-12,-15,3.03,-1.15,-0.17,1.0,-0.01,0.026,-0.002,
187,1,285.463,-0.05,-0.019,0.99,0.0,0.0,0.0,16,-12,-15,3.03,-1.15,-0.17,1.0,-0.01,0.026,-0.002,
188,1,285.473,-0.053,-0.019,0.99,0.0,0.0,0.0,16,-11,-15,3.03,-1.15,-0.17,1.0,-0.01,0.026,-0.002,
189,1,285.483,-0.053,-0.02,0.989,0.0,0.0,0.0,16,-11,-15,3.03,-1.15,-0.17,1.0,-0.01,0.026,-0.002,
190,1,285.493,-0.054,-0.017,0.991,0.0,0.0,0.0,16,-12,-15,3.03,-1.15,-0.17,1.0,-0.01,0.026,-0.002,
191,1,285.503,-0.051,-0.021,0.99,0.0,0.0,0.0,17,-11,-15,3.03,-1.15,-0.17,1.0,-0.01,0.026,-0.002,
192,1,285.513,-0.052,-0.019,0.987,0.0,0.0,0.0,16,-12,-15,3.03,-1.15,-0.17,1.0,-0.01,0.026,-0.002,
193,1,285.523,-0.056,-0.016,0.986,0.0,0.0,0.0,17,-11,-15,3.03,-1.15,-0.17,1.0,-0.01,0.026,-0.002,
194,1,285.533,-0.05,-0.025,0.988,0.0,0.0,0.0,16,-11,-15,3.03,-1.15,-0.17,1.0,-0.01,0.026,-0.002,
195,1,285.543,-0.053,-0.019,0.99,0.0,0.0,0.0,17,-11,-15,3.03,-1.15,-0.17,1.0,-0.01,0.026,-0.002,
196,1,285.553,-0.054,-0.018,0.985,0.0,0.0,0.0,16,-11,-15,3.03,-1.15,-0.17,1.0,-0.01,0.026,-0.002,
197,1,285.563,-0.055,-0.019,0.986,0.0,0.0,0.0,16,-11,-15,3.03,-1.15,-0.17,1.0,-0.01,0.026,-0.002,
198,1,285.573,-0.051,-0.021,0.985,0.0,0.0,0.0,16,-11,-15,3.03,-1.15,-0.17,1.0,-0.01,0.026,-0.002,
199,1,285.583,-0.054,-0.019,0.988,0.0,0.0,0.0,16,-11,-15,3.03,-1.15,-0.17,1.0,-0.01,0.026,-0.002,
200,1,285.593,-0.053,-0.021,0.986,0.0,0.0,0.0,16,-12,-15,3.03,-1.15,-0.17,1.0,-0.01,0.026,-0.002,
201,1,285.603,-0.052,-0.021,0.99,0.0,0.0,0.0,17,-11,-15,3.03,-1.15,-0.17,1.0,-0.01,0.026,-0.002,
202,1,285.613,-0.054,-0.019,0.99,0.0,0.0,0.0,16,-11,-15,3.03,-1.15,-0.17,1.0,-0.01,0.026,-0.002,
203,1,285.623,-0.051,-0.019,0.989,0.0,0.0,0.0,17,-11,-15,3.03,-1.15,-0.17,1.0,-0.01,0.026,-0.002,
204,1,285.633,-0.052,-0.021,0.988,0.0,0.0,0.0,17,-11,-15,3.03,-1.15,-0.17,1.0,-0.01,0.026,-0.002,
205,1,285.643,-0.055,-0.021,0.988,0.0,0.0,0.0,16,-11,-15,3.03,-1.15,-0.17,1.0,-0.01,0.026,-0.002,
206,1,285.653,-0.052,-0.018,0.985,0.0,0.0,0.0,16,-12,-14,3.03,-1.15,-0.17,1.0,-0.01,0.026,-0.002,
207,1,285.663,-0.052,-0.021,0.987,0.0,0.0,0.0,16,-12,-15,3.03,-1.15,-0.17,1.0,-0.01,0.026,-0.002,
208,1,285.673,-0.055,-0.018,0.988,0.0,0.0,0.0,16,-11,-15,3.03,-1.15,-0.17,1.0,-0.01,0.026,-0.002,
209,1,285.683,-0.052,-0.019,0.988,0.0,0.0,0.0,16,-11,-15,3.03,-1.15,-0.17,1.0,-0.01,0.026,-0.002,
210,1,285.693,-0.051,-0.024,0.989,0.0,0.0,0.0,16,-11,-15,3.03,-1.15,-0.17,1.0,-0.01,0.026,-0.002,
211,1,285.703,-0.051,-0.019,0.987,0.0,0.0,0.0,17,-11,-15,3.03,-1.15,-0.17,1.0,-0.01,0.026,-0.002,
212,1,285.713,-0.054,-0.02,0.985,0.0,0.0,0.0,17,-11,-15,3.03,-1.15,-0.17,1.0,-0.01,0.026,-0.002,
213,1,285.723,-0.052,-0.021,0.987,0.0,0.0,0.0,16,-12,-15,3.03,-1.15,-0.17,1.0,-0.01,0.026,-0.002,
214,1,285.733,-0.051,-0.021,0.989,0.0,0.0,0.0,16,-12,-15,3.03,-1.15,-0.17,1.0,-0.01,0.026,-0.002,
215,1,285.743,-0.056,-0.02,0.985,0.0,0.0,0.0,16,-11,-15,3.03,-1.16,-0.17,1.0,-0.01,0.026,-0.002,
216,1,285.753,-0.057,-0.017,0.983,0.0,0.0,0.0,16,-11,-15,3.03,-1.15,-0.17,1.0,-0.01,0.026,-0.002,
217,1,285.763,-0.051,-0.02,0.987,0.0,0.0,0.0,16,-11,-15,3.03,-1.15,-0.17,1.0,-0.01,0.026,-0.002,
218,1,285.773,-0.051,-0.023,0.989,0.0,0.0,0.0,16,-11,-15,3.03,-1.15,-0.17,1.0,-0.01,0.026,-0.002,
219,1,285.783,-0.054,-0.016,0.986,0.0,0.0,0.0,16,-11,-15,3.03,-1.15,-0.17,1.0,-0.01,0.026,-0.002,
220,1,285.793,-0.053,-0.018,0.987,0.0,0.0,0.0,16,-11,-15,3.03,-1.15,-0.17,1.0,-0.01,0.026,-0.002,
221,1,285.803,-0.053,-0.022,0.99,0.0,0.0,0.0,17,-11,-15,3.03,-1.15,-0.17,1.0,-0.01,0.026,-0.002,
222,1,285.813,-0.05,-0.019,0.99,0.0,0.0,0.0,16,-11,-15,3.03,-1.15,-0.17,1.0,-0.01,0.026,-0.002,
223,1,285.823,-0.053,-0.015,0.984,0.0,0.0,0.0,16,-11,-15,3.03,-1.15,-0.17,1.0,-0.01,0.026,-0.002,
224,1,285.833,-0.053,-0.017,0.988,0.0,0.0,0.0,16,-11,-15,3.03,-1.15,-0.17,1.0,-0.01,0.026,-0.002,
225,1,285.843,-0.053,-0.021,0.988,0.0,0.0,0.0,16,-12,-15,3.03,-1.15,-0.17,1.0,-0.01,0.026,-0.002,
226,1,285.853,-0.052,-0.021,0.987,0.0,0.0,0.0,16,-12,-15,3.03,-1.15,-0.17,1.0,-0.01,0.026,-0.002,
227,1,285.863,-0.052,-0.021,0.988,0.0,0.0,0.0,16,-11,-15,3.03,-1.15,-0.17,1.0,-0.01,0.026,-0.002,
228,1,285.873,-0.052,-0.017,0.985,0.0,0.0,0.0,16,-12,-15,3.03,-1.15,-0.17,1.0,-0.01,0.026,-0.002,
229,1,285.883,-0.053,-0.021,0.99,0.0,0.0,0.0,16,-11,-15,3.03,-1.15,-0.17,1.0,-0.01,0.026,-0.002,
230,1,285.893,-0.052,-0.022,0.99,0.0,0.0,0.0,17,-11,-15,3.03,-1.15,-0.17,1.0,-0.01,0.026,-0.002,
231,1,285.903,-0.054,-0.018,0.985,0.0,0.0,0.0,16,-12,-15,3.03,-1.15,-0.17,1.0,-0.01,0.026,-0.002,
232,1,285.913,-0.054,-0.019,0.986,0.0,0.0,0.0,16,-12,-15,3.03,-1.15,-0.17,1.0,-0.01,0.026,-0.002,
233,1,285.923,-0.049,-0.021,0.989,0.0,0.0,0.0,16,-11,-15,3.03,-1.15,-0.17,1.0,-0.01,0.026,-0.002,
234,1,285.933,-0.052,-0.021,0.99,0.0,0.0,0.0,16,-11,-15,3.03,-1.15,-0.17,1.0,-0.01,0.026,-0.002,
235,1,285.943,-0.055,-0.02,0.99,0.0,0.0,0.0,16,-11,-15,3.03,-1.15,-0.17,1.0,-0.01,0.026,-0.002,
236,1,285.953,-0.052,-0.021,0.986,0.0,0.0,0.0,16,-11,-15,3.03,-1.15,-0.17,1.0,-0.01,0.026,-0.002,
237,1,285.963,-0.049,-0.021,0.99,0.0,0.0,0.0,16,-11,-15,3.03,-1.15,-0.17,1.0,-0.01,0.026,-0.002,
238,1,285.973,-0.05,-0.021,0.99,0.0,0.0,0.0,16,-12,-15,3.03,-1.15,-0.17,1.0,-0.01,0.026,-0.002,
239,1,285.983,-0.054,-0.019,0.984,0.0,0.0,0.0,16,-11,-15,3.03,-1.15,-0.17,1.0,-0.01,0.026,-0.002,
240,1,285.993,-0.054,-0.016,0.985,0.0,0.0,0.0,16,-11,-15,3.03,-1.15,-0.17,1.0,-0.01,0.026,-0.002,
241,1,286.003,-0.049,-0.022,0.987,0.0,0.0,0.0,16,-11,-15,3.03,-1.15,-0.17,1.0,-0.01,0.026,-0.002,
242,1,286.013,-0.054,-0.021,0.99,0.0,0.0,0.0,16,-11,-15,3.03,-1.15,-0.17,1.0,-0.01,0.026,-0.002,
243,1,286.023,-0.054,-0.021,0.987,0.0,0.0,0.0,16,-11,-15,3.03,-1.15,-0.17,1.0,-0.01,0.026,-0.002,
244,1,286.033,-0.054,-0.02,0.985,0.0,0.0,0.0,16,-11,-15,3.03,-1.15,-0.17,1.0,-0.01,0.026,-0.002,
245,1,286.043,-0.048,-0.021,0.991,0.0,0.0,0.0,16,-11,-15,3.03,-1.15,-0.17,1.0,-0.01,0.026,-0.002,
246,1,286.053,-0.05,-0.021,0.99,0.0,0.0,0.0,16,-11,-15,3.03,-1.15,-0.17,1.0,-0.01,0.026,-0.002,
247,1,286.063,-0.053,-0.018,0.987,0.0,0.0,0.0,16,-12,-15,3.03,-1.15,-0.17,1.0,-0.01,0.026,-0.002,
248,1,286.073,-0.053,-0.02,0.986,0.0,0.0,0.0,17,-12,-15,3.03,-1.15,-0.17,1.0,-0.01,0.026,-0.002,
249,1,286.083,-0.049,-0.024,0.99,0.0,0.0,0.0,16,-11,-15,3.03,-1.15,-0.17,1.0,-0.01,0.026,-0.002,
250,1,286.093,-0.051,-0.016,0.983,0.0,0.0,0.0,16,-11,-15,3.03,-1.15,-0.17,1.0,-0.01,0.026,-0.002,
251,1,286.103,-0.053,-0.016,0.984,0.0,0.0,0.0,16,-12,-15,3.03,-1.15,-0.17,1.0,-0.01,0.026,-0.002,
252,1,286.113,-0.053,-0.021,0.989,0.0,0.0,0.0,17,-11,-15,3.03,-1.15,-0.17,1.0,-0.01,0.026,-0.002,
253,1,286.123,-0.05,-0.024,0.989,0.0,0.0,0.0,16,-11,-15,3.03,-1.15,-0.17,1.0,-0.01,0.026,-0.002,
254,1,286.133,-0.05,-0.02,0.984,0.0,0.0,0.0,17,-12,-15,3.03,-1.15,-0.17,1.0,-0.01,0.026,-0.002,
255,1,286.143,-0.054,-0.019,0.984,0.0,0.0,0.0,16,-11,-15,3.03,-1.15,-0.17,1.0,-0.01,0.026,-0.002,
256,1,286.153,-0.052,-0.021,0.988,0.0,0.0,0.0,16,-11,-15,3.03,-1.15,-0.17,1.0,-0.01,0.026,-0.002,
257,1,286.163,-0.05,-0.022,0.986,0.0,0.0,0.0,16,-11,-14,3.03,-1.16,-0.17,1.0,-0.01,0.026,-0.002,
258,1,286.173,-0.05,-0.021,0.987,0.0,0.0,0.0,16,-11,-15,3.03,-1.16,-0.17,1.0,-0.01,0.026,-0.002,
259,1,286.183,-0.052,-0.017,0.985,0.0,0.0,0.0,16,-11,-15,3.03,-1.16,-0.17,1.0,-0.01,0.026,-0.002,
260,1,286.193,-0.053,-0.021,0.99,0.0,0.0,0.0,17,-12,-15,3.03,-1.15,-0.17,1.0,-0.01,0.026,-0.002,
261,1,286.203,-0.05,-0.021,0.99,0.0,0.0,0.0,16,-11,-15,3.03,-1.16,-0.17,1.0,-0.01,0.026,-0.002,
262,1,286.213,-0.053,-0.02,0.983,0.0,0.0,0.0,17,-11,-15,3.03,-1.16,-0.17,1.0,-0.01,0.026,-0.002,
263,1,286.223,-0.054,-0.019,0.984,0.0,0.0,0.0,17,-11,-15,3.02,-1.16,-0.17,1.0,-0.01,0.026,-0.002,
264,1,286.233,-0.054,-0.02,0.989,0.0,0.0,0.0,16,-11,-15,3.03,-1.16,-0.17,1.0,-0.01,0.026,-0.002,
265,1,286.243,-0.051,-0.022,0.988,0.0,0.0,0.0,16,-12,-15,3.03,-1.15,-0.17,1.0,-0.01,0.026,-0.002,
266,1,286.253,-0.053,-0.021,0.99,0.0,0.0,0.0,17,-11,-15,3.03,-1.15,-0.17,1.0,-0.01,0.026,-0.002,
267,1,286.263,-0.052,-0.018,0.986,0.0,0.0,0.0,17,-11,-15,3.03,-1.15,-0.17,1.0,-0.01,0.026,-0.002,
268,1,286.273,-0.05,-0.022,0.988,0.0,0.0,0.0,16,-11,-15,3.03,-1.15,-0.17,1.0,-0.01,0.026,-0.002,
269,1,286.283,-0.053,-0.021,0.988,0.0,0.0,0.0,16,-11,-15,3.03,-1.15,-0.17,1.0,-0.01,0.026,-0.002,
270,1,286.293,-0.053,-0.015,0.987,0.0,0.0,0.0,16,-11,-15,3.03,-1.15,-0.17,1.0,-0.01,0.026,-0.002,
271,1,286.303,-0.054,-0.015,0.986,0.0,0.0,0.0,16,-12,-15,3.03,-1.15,-0.17,1.0,-0.01,0.026,-0.002,
272,1,286.313,-0.054,-0.022,0.985,0.0,0.0,0.0,16,-11,-15,3.03,-1.15,-0.17,1.0,-0.01,0.026,-0.002,
273,1,286.323,-0.05,-0.018,0.99,0.0,0.0,0.0,16,-11,-15,3.03,-1.15,-0.17,1.0,-0.01,0.026,-0.002,
274,1,286.333,-0.054,-0.02,0.99,0.0,0.0,0.0,17,-11,-15,3.03,-1.15,-0.17,1.0,-0.01,0.026,-0.002,
275,1,286.343,-0.053,-0.018,0.991,0.0,0.0,0.0,17,-11,-15,3.03,-1.15,-0.17,1.0,-0.01,0.026,-0.002,
276,1,286.353,-0.049,-0.022,0.988,0.0,0.0,0.0,17,-11,-15,3.03,-1.14,-0.17,1.0,-0.01,0.026,-0.002,
277,1,286.363,-0.052,-0.016,0.989,0.0,0.0,0.0,16,-12,-15,3.03,-1.15,-0.17,1.0,-0.01,0.026,-0.002,
278,1,286.373,-0.053,-0.021,0.987,0.0,0.0,0.0,16,-11,-15,3.03,-1.14,-0.17,1.0,-0.01,0.026,-0.002,
279,1,286.383,-0.053,-0.021,0.987,0.0,0.0,0.0,16,-11,-15,3.03,-1.14,-0.17,1.0,-0.01,0.026,-0.002,
280,1,286.393,-0.052,-0.02,0.988,0.0,0.0,0.0,16,-12,-15,3.03,-1.14,-0.17,1.0,-0.01,0.026,-0.002,
281,1,286.403,-0.052,-0.021,0.988,0.0,0.0,0.0,16,-11,-15,3.03,-1.15,-0.17,1.0,-0.01,0.026,-0.002,
282,1,286.413,-0.054,-0.022,0.988,0.0,0.0,0.0,16,-11,-15,3.03,-1.14,-0.17,1.0,-0.01,0.026,-0.002,
283,1,286.423,-0.05,-0.018,0.987,0.0,0.0,0.0,16,-11,-15,3.03,-1.15,-0.17,1.0,-0.01,0.026,-0.002,
284,1,286.433,-0.053,-0.016,0.99,0.0,0.0,0.0,16,-11,-15,3.03,-1.15,-0.17,1.0,-0.01,0.026,-0.002,
285,1,286.443,-0.051,-0.024,0.989,0.0,0.0,0.0,16,-11,-15,3.03,-1.14,-0.17,1.0,-0.01,0.026,-0.002,
286,1,286.453,-0.053,-0.018,0.986,0.0,0.0,0.0,16,-11,-15,3.03,-1.14,-0.17,1.0,-0.01,0.026,-0.002,
287,1,286.463,-0.053,-0.019,0.986,0.0,0.0,0.0,16,-11,-15,3.03,-1.14,-0.17,1.0,-0.01,0.026,-0.002,
288,1,286.473,-0.054,-0.02,0.988,0.0,0.0,0.0,17,-12,-15,3.03,-1.14,-0.17,1.0,-0.01,0.026,-0.002,
289,1,286.483,-0.053,-0.018,0.989,0.0,0.0,0.0,16,-11,-15,3.03,-1.14,-0.17,1.0,-0.01,0.026,-0.002,
290,1,286.493,-0.048,-0.021,0.99,0.0,0.0,0.0,17,-11,-15,3.03,-1.14,-0.17,1.0,-0.01,0.026,-0.002,
291,1,286.503,-0.052,-0.018,0.984,0.0,0.0,0.0,17,-11,-15,3.03,-1.14,-0.17,1.0,-0.01,0.026,-0.002,
292,1,286.513,-0.054,-0.017,0.989,0.0,0.0,0.0,16,-11,-15,3.03,-1.14,-0.17,1.0,-0.01,0.026,-0.002,
293,1,286.523,-0.053,-0.019,0.988,0.0,0.0,0.0,16,-11,-15,3.03,-1.14,-0.17,1.0,-0.01,0.026,-0.002,
294,1,286.533,-0.052,-0.019,0.986,0.0,0.0,0.0,16,-12,-15,3.03,-1.14,-0.17,1.0,-0.01,0.026,-0.002,
295,1,286.543,-0.053,-0.021,0.988,0.0,0.0,0.0,16,-12,-15,3.03,-1.14,-0.17,1.0,-0.01,0.026,-0.002,
296,1,286.553,-0.051,-0.021,0.986,0.0,0.0,0.0,17,-11,-15,3.03,-1.14,-0.17,1.0,-0.01,0.026,-0.002,
297,1,286.563,-0.054,-0.016,0.986,0.0,0.0,0.0,16,-11,-15,3.03,-1.14,-0.17,1.0,-0.01,0.026,-0.002,
298,1,286.573,-0.049,-0.021,0.99,0.0,0.0,0.0,16,-11,-15,3.03,-1.14,-0.17,1.0,-0.01,0.026,-0.002,
299,1,286.583,-0.054,-0.022,0.987,0.0,0.0,0.0,16,-11,-15,3.03,-1.14,-0.17,1.0,-0.01,0.026,-0.002,
300,1,286.593,-0.056,-0.017,0.987,0.0,0.0,0.0,16,-12,-15,3.03,-1.14,-0.17,1.0,-0.01,0.026,-0.002,
301,1,286.603,-0.053,-0.02,0.989,0.0,0.0,0.0,16,-11,-15,3.03,-1.14,-0.17,1.0,-0.01,0.026,-0.002,
302,1,286.613,-0.05,-0.025,0.989,0.0,0.0,0.0,16,-11,-15,3.03,-1.14,-0.17,1.0,-0.01,0.026,-0.002,
303,1,286.623,-0.054,-0.021,0.989,0.0,0.0,0.0,16,-12,-15,3.03,-1.14,-0.17,1.0,-0.01,0.026,-0.002,
304,1,286.633,-0.056,-0.021,0.985,0.0,0.0,0.0,16,-11,-15,3.03,-1.14,-0.17,1.0,-0.01,0.026,-0.002,
305,1,286.643,-0.052,-0.02,0.987,0.0,0.0,0.0,16,-11,-15,3.03,-1.14,-0.17,1.0,-0.01,0.026,-0.002,
306,1,286.653,-0.052,-0.02,0.985,0.0,0.0,0.0,17,-11,-15,3.03,-1.14,-0.17,1.0,-0.01,0.026,-0.002,
307,1,286.663,-0.056,-0.017,0.988,0.0,0.0,0.0,16,-11,-15,3.03,-1.14,-0.17,1.0,-0.01,0.026,-0.002,
308,1,286.673,-0.057,-0.019,0.988,0.0,0.0,0.0,16,-11,-15,3.03,-1.14,-0.17,1.0,-0.01,0.026,-0.002,
309,1,286.683,-0.054,-0.021,0.99,0.0,0.0,0.0,16,-11,-15,3.03,-1.14,-0.17,1.0,-0.01,0.026,-0.002,
310,1,286.693,-0.051,-0.021,0.987,0.0,0.0,0.0,16,-11,-15,3.03,-1.14,-0.17,1.0,-0.01,0.026,-0.002,
311,1,286.703,-0.052,-0.016,0.982,0.0,0.0,0.0,16,-12,-15,3.03,-1.15,-0.17,1.0,-0.01,0.026,-0.002,
312,1,286.713,-0.054,-0.02,0.99,0.0,0.0,0.0,16,-12,-15,3.03,-1.14,-0.17,1.0,-0.01,0.026,-0.002,
313,1,286.723,-0.055,-0.019,0.989,0.0,0.0,0.0,16,-11,-15,3.03,-1.15,-0.17,1.0,-0.01,0.026,-0.002,
314,1,286.733,-0.05,-0.02,0.99,0.0,0.0,0.0,16,-12,-15,3.03,-1.15,-0.17,1.0,-0.01,0.026,-0.002,
315,1,286.743,-0.053,-0.021,0.986,0.0,0.0,0.0,16,-11,-15,3.03,-1.15,-0.17,1.0,-0.01,0.026,-0.002,
316,1,286.753,-0.058,-0.017,0.986,0.0,0.0,0.0,16,-12,-15,3.03,-1.15,-0.17,1.0,-0.01,0.026,-0.002,
317,1,286.763,-0.054,-0.021,0.99,0.0,0.0,0.0,16,-12,-15,3.03,-1.15,-0.17,1.0,-0.01,0.026,-0.002,
318,1,286.773,-0.05,-0.024,0.991,0.0,0.0,0.0,16,-12,-15,3.03,-1.15,-0.17,1.0,-0.01,0.026,-0.002,
319,1,286.783,-0.055,-0.018,0.984,0.0,0.0,0.0,16,-11,-15,3.03,-1.15,-0.17,1.0,-0.01,0.026,-0.002,
320,1,286.793,-0.051,-0.017,0.987,0.0,0.0,0.0,16,-11,-15,3.03,-1.15,-0.17,1.0,-0.01,0.026,-0.002,
321,1,286.803,-0.051,-0.023,0.99,0.0,0.0,0.0,16,-12,-15,3.03,-1.14,-0.17,1.0,-0.01,0.026,-0.002,
322,1,286.813,-0.05,-0.023,0.991,0.0,0.0,0.0,17,-12,-15,3.03,-1.14,-0.17,1.0,-0.01,0.026,-0.002,
323,1,286.823,-0.055,-0.017,0.986,0.0,0.0,0.0,16,-12,-15,3.03,-1.15,-0.17,1.0,-0.01,0.026,-0.002,
324,1,286.833,-0.053,-0.016,0.982,0.0,0.0,0.0,16,-11,-15,3.03,-1.15,-0.17,1.0,-0.01,0.026,-0.002,
325,1,286.843,-0.053,-0.024,0.985,0.0,0.0,0.0,16,-12,-15,3.03,-1.14,-0.17,1.0,-0.01,0.026,-0.002,
326,1,286.853,-0.052,-0.022,0.99,0.0,0.0,0.0,17,-12,-15,3.03,-1.15,-0.17,1.0,-0.01,0.026,-0.002,
327,1,286.863,-0.056,-0.017,0.985,0.0,0.0,0.0,17,-11,-15,3.03,-1.15,-0.17,1.0,-0.01,0.026,-0.002,
328,1,286.873,-0.054,-0.019,0.982,0.0,0.0,0.0,17,-12,-15,3.03,-1.15,-0.17,1.0,-0.01,0.026,-0.002,
329,1,286.883,-0.05,-0.023,0.991,0.0,0.0,0.0,16,-12,-15,3.03,-1.15,-0.17,1.0,-0.01,0.026,-0.002,
330,1,286.893,-0.05,-0.018,0.986,0.0,0.0,0.0,16,-11,-15,3.03,-1.15,-0.17,1.0,-0.01,0.026,-0.002,
331,1,286.903,-0.053,-0.017,0.986,0.0,0.0,0.0,16,-11,-15,3.03,-1.15,-0.17,1.0,-0.01,0.026,-0.002,
332,1,286.913,-0.055,-0.021,0.986,0.0,0.0,0.0,16,-12,-15,3.03,-1.15,-0.17,1.0,-0.01,0.026,-0.002,
333,1,286.923,-0.052,-0.021,0.988,0.0,0.0,0.0,16,-12,-15,3.03,-1.14,-0.17,1.0,-0.01,0.026,-0.002,
334,1,286.933,-0.054,-0.021,0.988,0.0,0.0,0.0,17,-11,-15,3.03,-1.14,-0.17,1.0,-0.01,0.026,-0.002,
335,1,286.943,-0.054,-0.019,0.988,0.0,0.0,0.0,16,-11,-15,3.03,-1.14,-0.17,1.0,-0.01,0.026,-0.002,
336,1,286.953,-0.054,-0.019,0.988,0.0,0.0,0.0,17,-11,-15,3.03,-1.14,-0.17,1.0,-0.01,0.026,-0.002,
337,1,286.963,-0.047,-0.021,0.987,0.0,0.0,0.0,17,-12,-15,3.04,-1.14,-0.17,1.0,-0.01,0.027,-0.002,
338,1,286.973,-0.053,-0.021,0.987,0.0,0.0,0.0,16,-12,-15,3.04,-1.14,-0.17,1.0,-0.01,0.027,-0.002,
339,1,286.983,-0.056,-0.021,0.987,0.0,0.0,0.0,16,-11,-15,3.03,-1.14,-0.17,1.0,-0.01,0.026,-0.002,
340,1,286.993,-0.054,-0.017,0.988,0.0,0.0,0.0,16,-11,-15,3.04,-1.14,-0.17,1.0,-0.01,0.026,-0.002,
341,1,287.003,-0.05,-0.021,0.99,0.0,0.0,0.0,16,-11,-15,3.04,-1.14,-0.17,1.0,-0.01,0.027,-0.002,
342,1,287.013,-0.056,-0.022,0.989,0.0,0.0,0.0,17,-11,-15,3.04,-1.14,-0.17,1.0,-0.01,0.027,-0.002,
343,1,287.023,-0.055,-0.014,0.984,0.0,0.0,0.0,16,-11,-15,3.04,-1.14,-0.17,1.0,-0.01,0.027,-0.002,
344,1,287.033,-0.053,-0.017,0.984,0.0,0.0,0.0,17,-11,-15,3.04,-1.14,-0.17,1.0,-0.01,0.027,-0.002,
345,1,287.043,-0.049,-0.023,0.99,0.0,0.0,0.0,16,-11,-15,3.04,-1.14,-0.17,1.0,-0.01,0.027,-0.002,
346,1,287.053,-0.056,-0.018,0.989,0.0,0.0,0.0,16,-11,-15,3.04,-1.14,-0.17,1.0,-0.01,0.027,-0.002,
347,1,287.063,-0.055,-0.018,0.988,0.0,0.0,0.0,16,-11,-15,3.04,-1.14,-0.17,1.0,-0.01,0.027,-0.002,
348,1,287.073,-0.051,-0.02,0.987,0.0,0.0,0.0,16,-11,-15,3.04,-1.14,-0.17,1.0,-0.01,0.027,-0.002,
349,1,287.083,-0.052,-0.021,0.989,0.0,0.0,0.0,17,-11,-15,3.04,-1.14,-0.17,1.0,-0.01,0.027,-0.002,
350,1,287.093,-0.051,-0.017,0.987,0.0,0.0,0.0,16,-11,-15,3.04,-1.14,-0.17,1.0,-0.01,0.027,-0.002,
351,1,287.103,-0.057,-0.018,0.986,0.0,0.0,0.0,16,-11,-15,3.04,-1.14,-0.17,1.0,-0.01,0.027,-0.002,
352,1,287.113,-0.051,-0.022,0.986,0.0,0.0,0.0,16,-11,-15,3.04,-1.14,-0.17,1.0,-0.01,0.027,-0.002,
353,1,287.123,-0.054,-0.02,0.986,0.0,0.0,0.0,16,-12,-15,3.04,-1.14,-0.17,1.0,-0.01,0.027,-0.002,
354,1,287.133,-0.052,-0.02,0.986,0.0,0.0,0.0,16,-11,-15,3.04,-1.14,-0.17,1.0,-0.01,0.027,-0.002,
355,1,287.143,-0.053,-0.019,0.984,0.0,0.0,0.0,16,-12,-15,3.04,-1.14,-0.17,1.0,-0.01,0.027,-0.002,
356,1,287.153,-0.058,-0.023,0.99,0.0,0.0,0.0,16,-11,-15,3.04,-1.14,-0.17,1.0,-0.01,0.027,-0.002,
357,1,287.163,-0.049,-0.02,0.988,0.0,0.0,0.0,16,-12,-15,3.04,-1.14,-0.17,1.0,-0.01,0.027,-0.002,
358,1,287.173,-0.054,-0.018,0.988,0.0,0.0,0.0,16,-12,-15,3.04,-1.14,-0.17,1.0,-0.01,0.027,-0.002,
359,1,287.183,-0.058,-0.02,0.986,0.0,0.0,0.0,17,-12,-15,3.04,-1.14,-0.17,1.0,-0.01,0.027,-0.002,
360,1,287.193,-0.052,-0.019,0.99,0.0,0.0,0.0,17,-12,-15,3.04,-1.14,-0.17,1.0,-0.01,0.027,-0.002,
361,1,287.203,-0.049,-0.023,0.99,0.0,0.0,0.0,16,-12,-15,3.04,-1.14,-0.17,1.0,-0.01,0.027,-0.002,
362,1,287.213,-0.052,-0.02,0.987,0.0,0.0,0.0,16,-11,-15,3.04,-1.14,-0.17,1.0,-0.01,0.027,-0.002,
363,1,287.223,-0.054,-0.019,0.984,0.0,0.0,0.0,16,-11,-15,3.04,-1.14,-0.17,1.0,-0.01,0.027,-0.002,
364,1,287.233,-0.053,-0.021,0.986,0.0,0.0,0.0,16,-11,-15,3.04,-1.14,-0.17,1.0,-0.01,0.027,-0.002,
365,1,287.243,-0.049,-0.022,0.989,0.0,0.0,0.0,16,-11,-15,3.04,-1.14,-0.17,1.0,-0.01,0.027,-0.002,
366,1,287.253,-0.054,-0.021,0.984,0.0,0.0,0.0,16,-11,-15,3.04,-1.14,-0.17,1.0,-0.01,0.027,-0.002,
367,1,287.263,-0.05,-0.018,0.987,0.0,0.0,0.0,16,-12,-15,3.04,-1.14,-0.17,1.0,-0.01,0.027,-0.002,
368,1,287.273,-0.052,-0.022,0.99,0.0,0.0,0.0,16,-11,-15,3.04,-1.14,-0.17,1.0,-0.01,0.027,-0.002,
369,1,287.283,-0.055,-0.02,0.989,0.0,0.0,0.0,16,-11,-15,3.04,-1.14,-0.17,1.0,-0.01,0.027,-0.002,
370,1,287.293,-0.053,-0.019,0.988,0.0,0.0,0.0,16,-11,-15,3.04,-1.14,-0.17,1.0,-0.01,0.027,-0.002,
371,1,287.303,-0.053,-0.02,0.985,0.0,0.0,0.0,17,-11,-15,3.04,-1.14,-0.17,1.0,-0.01,0.027,-0.002,
372,1,287.313,-0.055,-0.021,0.987,0.0,0.0,0.0,17,-12,-15,3.04,-1.14,-0.17,1.0,-0.01,0.027,-0.002,
373,1,287.323,-0.055,-0.02,0.988,0.0,0.0,0.0,17,-11,-15,3.04,-1.14,-0.17,1.0,-0.01,0.027,-0.002,
374,1,287.333,-0.05,-0.016,0.988,0.0,0.0,0.0,16,-11,-15,3.04,-1.14,-0.17,1.0,-0.01,0.027,-0.002,
375,1,287.344,-0.054,-0.021,0.99,0.0,0.0,0.0,16,-11,-15,3.04,-1.14,-0.17,1.0,-0.01,0.027,-0.002,
376,1,287.354,-0.051,-0.02,0.985,0.0,0.0,0.0,17,-11,-15,3.04,-1.14,-0.17,1.0,-0.01,0.027,-0.002,
377,1,287.364,-0.051,-0.02,0.99,0.0,0.0,0.0,17,-11,-15,3.04,-1.14,-0.17,1.0,-0.01,0.027,-0.002,
378,1,287.373,-0.052,-0.02,0.989,0.0,0.0,0.0,16,-11,-15,3.04,-1.14,-0.17,1.0,-0.01,0.027,-0.002,
379,1,287.383,-0.053,-0.02,0.99,0.0,0.0,0.0,17,-11,-15,3.04,-1.14,-0.17,1.0,-0.01,0.027,-0.002,
380,1,287.394,-0.05,-0.019,0.988,0.0,0.0,0.0,17,-11,-15,3.04,-1.14,-0.17,1.0,-0.01,0.027,-0.002,
381,1,287.404,-0.052,-0.021,0.985,0.0,0.0,0.0,16,-12,-15,3.04,-1.14,-0.17,1.0,-0.01,0.027,-0.002,
382,1,287.414,-0.055,-0.017,0.985,0.0,0.0,0.0,16,-12,-15,3.04,-1.14,-0.17,1.0,-0.01,0.027,-0.002,
383,1,287.424,-0.054,-0.02,0.986,0.0,0.0,0.0,16,-11,-15,3.04,-1.14,-0.17,1.0,-0.01,0.027,-0.002,
384,1,287.434,-0.051,-0.02,0.989,0.0,0.0,0.0,16,-11,-15,3.04,-1.14,-0.17,1.0,-0.01,0.027,-0.002,
385,1,287.444,-0.051,-0.02,0.988,0.0,0.0,0.0,16,-11,-15,3.04,-1.14,-0.17,1.0,-0.01,0.027,-0.002,
386,1,287.453,-0.052,-0.019,0.987,0.0,0.0,0.0,16,-11,-15,3.04,-1.14,-0.17,1.0,-0.01,0.027,-0.002,
387,1,287.463,-0.053,-0.021,0.989,0.0,0.0,0.0,16,-12,-15,3.04,-1.14,-0.17,1.0,-0.01,0.027,-0.002,
388,1,287.473,-0.053,-0.02,0.989,0.0,0.0,0.0,16,-11,-15,3.04,-1.14,-0.17,1.0,-0.01,0.027,-0.002,
389,1,287.483,-0.052,-0.021,0.987,0.0,0.0,0.0,16,-11,-15,3.04,-1.14,-0.17,1.0,-0.01,0.027,-0.002,
390,1,287.494,-0.055,-0.02,0.99,0.0,0.0,0.0,16,-11,-15,3.04,-1.14,-0.17,1.0,-0.01,0.027,-0.002,
391,1,287.504,-0.052,-0.02,0.989,0.0,0.0,0.0,16,-12,-15,3.04,-1.14,-0.17,1.0,-0.01,0.027,-0.002,
392,1,287.514,-0.052,-0.02,0.985,0.0,0.0,0.0,16,-11,-15,3.04,-1.14,-0.17,1.0,-0.01,0.027,-0.002,
393,1,287.524,-0.051,-0.02,0.985,0.0,0.0,0.0,16,-11,-15,3.04,-1.14,-0.17,1.0,-0.01,0.027,-0.002,
394,1,287.534,-0.052,-0.018,0.984,0.0,0.0,0.0,17,-11,-15,3.04,-1.14,-0.17,1.0,-0.01,0.027,-0.002,
395,1,287.544,-0.052,-0.021,0.99,0.0,0.0,0.0,17,-11,-15,3.04,-1.14,-0.17,1.0,-0.01,0.027,-0.002,
396,1,287.554,-0.053,-0.019,0.99,0.0,0.0,0.0,16,-11,-15,3.04,-1.14,-0.17,1.0,-0.01,0.027,-0.002,
397,1,287.564,-0.054,-0.021,0.985,0.0,0.0,0.0,16,-11,-15,3.04,-1.14,-0.17,1.0,-0.01,0.027,-0.002,
398,1,287.574,-0.053,-0.02,0.986,0.0,0.0,0.0,16,-11,-15,3.04,-1.14,-0.17,1.0,-0.01,0.027,-0.002,
399,1,287.584,-0.056,-0.021,0.991,0.0,0.0,0.0,16,-11,-15,3.04,-1.14,-0.17,1.0,-0.01,0.027,-0.002,
400,1,287.594,-0.053,-0.016,0.99,0.0,0.0,0.0,16,-11,-15,3.04,-1.14,-0.17,1.0,-0.01,0.027,-0.002,
401,1,287.604,-0.052,-0.018,0.984,0.0,0.0,0.0,16,-11,-15,3.04,-1.14,-0.17,1.0,-0.01,0.027,-0.002,
402,1,287.614,-0.054,-0.021,0.988,0.0,0.0,0.0,16,-11,-15,3.04,-1.14,-0.17,1.0,-0.01,0.027,-0.002,
403,1,287.624,-0.052,-0.018,0.987,0.0,0.0,0.0,16,-11,-15,3.04,-1.14,-0.17,1.0,-0.01,0.027,-0.002,
404,1,287.634,-0.055,-0.02,0.986,0.0,0.0,0.0,16,-12,-15,3.04,-1.14,-0.17,1.0,-0.01,0.027,-0.002,
405,1,287.644,-0.05,-0.021,0.985,0.0,0.0,0.0,16,-12,-15,3.04,-1.14,-0.17,1.0,-0.01,0.027,-0.002,
406,1,287.654,-0.053,-0.021,0.986,0.0,0.0,0.0,16,-12,-15,3.04,-1.14,-0.17,1.0,-0.01,0.027,-0.002,
407,1,287.664,-0.054,-0.017,0.985,0.0,0.0,0.0,17,-11,-15,3.04,-1.14,-0.17,1.0,-0.01,0.027,-0.002,
408,1,287.674,-0.054,-0.021,0.985,0.0,0.0,0.0,16,-11,-15,3.04,-1.14,-0.17,1.0,-0.01,0.027,-0.002,
409,1,287.684,-0.053,-0.021,0.987,0.0,0.0,0.0,17,-11,-15,3.04,-1.14,-0.17,1.0,-0.01,0.027,-0.002,
410,1,287.694,-0.051,-0.019,0.987,0.0,0.0,0.0,17,-11,-15,3.04,-1.14,-0.17,1.0,-0.01,0.027,-0.002,
411,1,287.704,-0.055,-0.018,0.987,0.0,0.0,0.0,16,-11,-15,3.04,-1.14,-0.17,1.0,-0.01,0.027,-0.002,
412,1,287.714,-0.054,-0.019,0.987,0.0,0.0,0.0,16,-12,-15,3.04,-1.14,-0.17,1.0,-0.01,0.027,-0.002,
413,1,287.724,-0.053,-0.022,0.99,0.0,0.0,0.0,16,-12,-15,3.04,-1.13,-0.17,1.0,-0.01,0.027,-0.002,
414,1,287.734,-0.047,-0.021,0.987,0.0,0.0,0.0,16,-11,-15,3.04,-1.14,-0.17,1.0,-0.01,0.027,-0.002,
