Time,Speed,accX,accY,accZ,Magnitude
0.085,1500,0.02125137,0.00175824,-0.0018489,0
0.103,1500,0.02025137,0.00575824,-0.0028489,0
0.114,1500,0.01725137,0.00775824,-0.0028489,0
0.124,1500,0.02225137,0.00175824,0.0031511,0
0.134,1500,0.02525137,0.00175824,-0.0008489,0
0.144,1500,0.02025137,0.00675824,0.0001511,0
0.154,1500,0.02025137,0.00675824,-0.0048489,0
0.164,1500,0.02225137,0.00675824,0.0011511,0
0.174,1500,0.02125137,0.00575824,0.0001511,0
0.184,1500,0.01925137,0.00375824,-0.0018489,0
0.194,1500,0.01925137,0.00975824,-0.0038489,0
0.204,1500,0.02125137,0.00275824,0.0011511,0
0.214,1500,0.02425137,0.00375824,-0.0018489,0
0.224,1500,0.02125137,0.00775824,-0.0018489,0
0.234,1500,0.02025137,0.00575824,0.0011511,0
0.243,1500,0.02025137,0.00275824,0.0021511,0
0.254,1500,0.02225137,0.00175824,0.0031511,0
0.264,1500,0.02325137,0.00775824,0.0001511,0
0.274,1500,0.01725137,0.00575824,-0.0038489,0
0.284,1500,0.01825137,0.00375824,0.0031511,0
0.294,1500,0.02025137,0.00575824,0.0041511,0
0.304,1500,0.02125137,0.00475824,0.0001511,0
0.313,1500,0.01825137,0.00475824,-0.0008489,0
0.324,1500,0.02125137,0.00175824,0.0031511,0
0.334,1500,0.02125137,0.00475824,0.0011511,0
0.344,1500,0.01925137,0.00575824,-0.0028489,0
0.354,1500,0.01925137,0.00575824,0.0001511,0
0.364,1500,0.02325137,0.00275824,0.0021511,0
0.374,1500,0.01925137,0.00475824,0.0001511,0
0.384,1500,0.01825137,0.00675824,-0.0028489,0
0.393,1500,0.02225137,0.00375824,0.0011511,0
0.404,1500,0.02425137,0.00275824,-0.0028489,0
0.414,1500,0.02125137,0.00375824,0.0011511,0
0.424,1500,0.02025137,0.00675824,-0.0038489,0
0.434,1500,0.01925137,0.00275824,0.0011511,0
0.444,1500,0.02325137,0.00275824,0.0011511,0
0.454,1500,0.02025137,0.00675824,0.0021511,0
0.464,1500,0.02025137,0.00575824,-0.0008489,0
0.474,1500,0.02125137,0.00575824,0.0001511,0
0.484,1500,0.02225137,0.00375824,0.0021511,0
0.494,1500,0.01925137,0.00475824,-0.0018489,0
0.504,1500,0.02025137,0.00575824,0.0011511,0
0.514,1500,0.02025137,0.00475824,0.0031511,0
0.524,1500,0.02225137,0.00275824,0.0031511,0
0.534,1500,0.02025137,0.00875824,0.0011511,0
0.544,1500,0.02125137,0.00475824,0.0011511,0
0.554,1500,0.02325137,0.00275824,0.0041511,0
0.564,1500,0.02325137,0.00375824,0.0011511,0
0.575,1500,0.02425137,0.00675824,-0.0018489,0
0.584,1500,0.01925137,0.00475824,-0.0008489,0
0.594,1500,0.02425137,0.00475824,-0.0018489,0
0.604,1500,0.02225137,0.00375824,0.0011511,0
0.614,1500,0.01825137,0.00475824,-0.0018489,0
0.625,1500,0.01725137,0.00475824,-0.0008489,0
0.634,1500,0.02325137,0.00575824,0.0001511,0
0.644,1500,0.02025137,0.00375824,0.0011511,0
0.654,1500,0.02225137,0.00475824,-0.0038489,0
0.665,1500,0.02125137,0.00375824,0.0001511,0
0.675,1500,0.02025137,0.00375824,0.0031511,0
0.684,1500,0.02125137,0.00175824,-0.0018489,0
0.695,1500,0.02125137,0.00775824,-0.0008489,0
0.704,1500,0.02225137,0.00775824,0.0021511,0
0.714,1500,0.01825137,0.00275824,0.0031511,0
0.724,1500,0.01925137,0.00475824,0.0031511,0
0.734,1500,0.02025137,0.00675824,-0.0018489,0
0.744,1500,0.02125137,0.00575824,0.0001511,0
0.754,1500,0.02125137,0.00375824,0.0001511,0
0.763,1500,0.02025137,0.00375824,0.0001511,0
0.774,1500,0.02025137,0.00575824,-0.0008489,0
0.784,1500,0.02125137,0.00375824,0.0021511,0
0.794,1500,0.02025137,0.00475824,-0.0008489,0
0.804,1500,0.02225137,0.00675824,-0.0018489,0
0.814,1500,0.02025137,0.00475824,-0.0018489,0
0.824,1500,0.02025137,0.00475824,0.0021511,0
0.834,1500,0.02025137,0.00475824,0.0021511,0
0.844,1500,0.01825137,0.00675824,0.0021511,0
0.854,1500,0.02125137,0.00375824,-0.0008489,0
0.864,1500,0.02225137,0.00575824,0.0011511,0
0.874,1500,0.02225137,0.00375824,0.0001511,0
0.884,1500,0.01825137,0.00675824,0.0001511,0
0.894,1500,0.01925137,0.00575824,0.0001511,0
0.904,1500,0.02225137,0.00475824,-0.0018489,0
0.914,1500,0.02025137,0.00375824,-0.0028489,0
0.924,1500,0.01825137,0.00475824,0.0001511,0
0.934,1500,0.02025137,0.00975824,0.0031511,0
0.944,1500,0.02325137,0.00475824,0.0011511,0
0.954,1500,0.02025137,0.00475824,0.0001511,0
0.964,1500,0.02425137,0.00775824,0.0041511,0
0.975,1500,0.02125137,0.00375824,0.0001511,0
0.985,1500,0.01725137,0.00375824,0.0021511,0
0.994,1500,0.02125137,0.00275824,-0.0028489,0
1.004,1500,0.02425137,0.00475824,-0.0018489,0
1.014,1500,0.01625137,0.00475824,-0.0018489,0
1.024,1500,0.01825137,0.00375824,-0.0008489,0
1.034,1500,0.02225137,0.00875824,-0.0038489,0
1.044,1500,0.02225137,0.00475824,-0.0018489,0
1.054,1500,0.01925137,0.00275824,-0.0028489,0
1.065,1500,0.02325137,0.00775824,0.0021511,0
1.075,1500,0.02125137,0.00375824,0.0021511,0
1.085,1500,0.01825137,0.00675824,-0.0018489,0
1.095,1500,0.02225137,0.00575824,-0.0028489,0
1.104,1500,0.02125137,0.00575824,0.0011511,0
1.114,1500,0.01925137,0.00575824,0.0001511,0
1.124,1500,0.02025137,0.00275824,-0.0018489,0
1.134,1500,0.02225137,0.00575824,-0.0008489,0
1.144,1500,0.01925137,0.00275824,0.0011511,0
1.154,1500,0.01925137,0.00275824,0.0021511,0
1.165,1500,0.02125137,0.00475824,0.0001511,0
1.175,1500,0.02225137,0.00575824,0.0021511,0
1.185,1500,0.01825137,0.00375824,0.0021511,0
1.195,1500,0.01925137,0.00575824,0.0001511,0
1.205,1500,0.02225137,0.00575824,0.0001511,0
1.214,1500,0.02025137,0.00475824,0.0031511,0
1.224,1500,0.01825137,0.00575824,-0.0018489,0
1.234,1500,0.02025137,0.00775824,0.0001511,0
1.244,1500,0.02125137,0.00175824,0.0011511,0
1.254,1500,0.02125137,0.00475824,0.0001511,0
1.264,1500,0.02025137,0.00675824,-0.0018489,0
1.275,1500,0.02025137,0.00575824,-0.0008489,0
1.285,1500,0.02125137,0.00275824,0.0031511,0
1.295,1500,0.01925137,0.00575824,-0.0008489,0
1.305,1500,0.02225137,0.00875824,-0.0008489,0
1.315,1500,0.01825137,0.00175824,-0.0008489,0
1.324,1500,0.02025137,0.00275824,0.0041511,0
1.334,1500,0.02225137,0.00975824,-0.0008489,0
1.344,1500,0.01925137,0.00475824,-0.0028489,0
1.354,1500,0.02225137,0.00275824,0.0001511,0
1.364,1500,0.02025137,0.00475824,0.0011511,0
1.374,1500,0.02125137,0.00475824,-0.0038489,0
1.384,1500,0.01825137,0.00475824,0.0011511,0
1.394,1500,0.02025137,0.00575824,0.0021511,0
1.404,1500,0.02325137,0.00575824,-0.0038489,0
1.414,1500,0.01825137,0.00475824,0.0011511,0
1.424,1500,0.01925137,0.00575824,-0.0018489,0
1.434,1500,0.02125137,0.00175824,0.0021511,0
1.444,1500,0.02325137,0.00275824,0.0011511,0
1.455,1500,0.02025137,0.00475824,-0.0038489,0
1.465,1500,0.01925137,0.00975824,-0.0008489,0
1.475,1500,0.02225137,0.00375824,0.0001511,0
1.485,1500,0.01925137,0.00175824,0.0021511,0
1.494,1500,0.02225137,0.00475824,0.0001511,0
1.504,1500,0.02225137,0.00975824,-0.0018489,0
1.514,1500,0.02325137,0.00175824,0.0011511,0
1.524,1500,0.01925137,0.00375824,0.0011511,0
1.534,1500,0.02125137,0.00675824,-0.0018489,0
1.545,1500,0.01925137,0.00075824,0.0011511,0
1.555,1500,0.02225137,0.00175824,0.0001511,0
1.565,1500,0.02025137,0.00575824,0.0021511,0
1.575,1500,0.01825137,0.00675824,0.0011511,0
1.585,1500,0.02025137,0.00375824,0.0001511,0
1.594,1500,0.02125137,0.00275824,-0.0008489,0
1.604,1500,0.02025137,0.00475824,0.0001511,0
1.614,1500,0.01925137,0.00575824,-0.0008489,0
1.624,1500,0.02125137,0.00475824,0.0041511,0
1.634,1500,0.02325137,0.00275824,0.0001511,0
1.645,1500,0.02225137,0.00475824,-0.0008489,0
1.655,1500,0.01825137,0.00475824,-0.0008489,0
1.665,1500,0.02125137,0.00675824,0.0001511,0
1.675,1500,0.02125137,0.00375824,0.0021511,0
1.685,1500,0.01825137,0.00475824,-0.0018489,0
1.695,1500,0.02225137,0.01075824,-0.0018489,0
1.704,1500,0.01925137,0.00575824,0.0021511,0
1.714,1500,0.02125137,0.00275824,0.0001511,0
1.724,1500,0.01925137,0.00675824,-0.0008489,0
1.734,1500,0.02025137,0.00775824,-0.0018489,0
1.745,1500,0.02125137,-0.00024176,0.0031511,0
1.755,1500,0.01925137,0.00275824,0.0001511,0
1.765,1500,0.02325137,0.00775824,-0.0008489,0
1.775,1500,0.02425137,0.00375824,-0.0018489,0
1.785,1500,0.01925137,0.00275824,0.0021511,0
1.794,1500,0.02125137,0.00475824,0.0031511,0
1.804,1500,0.02125137,0.00275824,0.0021511,0
1.814,1500,0.01925137,0.00475824,0.0001511,0
1.824,1500,0.02125137,0.00575824,0.0031511,0
1.835,1500,0.02425137,0.00475824,-0.0008489,0
1.845,1500,0.01925137,0.00275824,-0.0028489,0
1.855,1500,0.01825137,0.00575824,0.0011511,0
1.865,1500,0.02525137,0.00475824,0.0001511,0
1.875,1500,0.02225137,0.00175824,-0.0018489,0
1.885,1500,0.01625137,0.00875824,-0.0018489,0
1.894,1500,0.02025137,0.00375824,-0.0008489,0
1.904,1500,0.02125137,0.00175824,-0.0008489,0
1.914,1500,0.02125137,0.00575824,0.0031511,0
1.924,1500,0.01725137,0.00475824,-0.0028489,0
1.934,1500,0.02125137,0.00575824,0.0011511,0
1.945,1500,0.02325137,0.00175824,0.0021511,0
1.955,1500,0.02125137,0.00375824,0.0001511,0
1.965,1500,0.01825137,0.00775824,-0.0018489,0
1.975,1500,0.02125137,0.00475824,-0.0008489,0
1.985,1500,0.02225137,0.00275824,-0.0008489,0
1.995,1500,0.01925137,0.00675824,0.0011511,0
2.006,1500,0.02525137,0.00675824,-0.0008489,0
2.015,1500,0.01725137,0.00475824,0.0001511,0
2.026,1500,0.01825137,0.00575824,0.0011511,0
2.035,1500,0.02425137,0.00675824,0.0001511,0
2.045,1500,0.02025137,0.00375824,0.0011511,0
2.055,1500,0.01825137,0.00475824,0.0031511,0
2.065,1500,0.02425137,0.00275824,0.0001511,0
2.075,1500,0.02025137,0.00575824,-0.0008489,0
2.084,1500,0.01925137,0.00475824,0.0001511,0
2.095,1500,0.02125137,0.00375824,0.0041511,0
2.105,1500,0.02225137,0.00475824,0.0011511,0
2.114,1500,0.01925137,0.00675824,-0.0018489,0
2.125,1500,0.01925137,0.00575824,-0.0028489,0
2.134,1500,0.02425137,0.00275824,0.0021511,0
2.144,1500,0.02425137,0.00275824,0.0011511,0
2.155,1500,0.01925137,0.00675824,-0.0038489,0
2.164,1500,0.02425137,0.00475824,-0.0018489,0
2.175,1500,0.01925137,0.00475824,0.0021511,0
2.184,1500,0.02025137,0.00275824,0.0011511,0
2.194,1500,0.02125137,0.00775824,-0.0028489,0
2.205,1500,0.02125137,0.00375824,-0.0008489,0
2.215,1500,0.02125137,0.00375824,0.0011511,0
2.225,1500,0.01825137,0.00475824,0.0011511,0
2.235,1500,0.01925137,0.00575824,-0.0018489,0
2.245,1500,0.01725137,0.00575824,0.0011511,0
2.255,1500,0.01625137,0.00275824,-0.0008489,0
2.265,1500,0.02225137,0.00575824,0.0011511,0
2.275,1500,0.02025137,0.00575824,0.0001511,0
2.285,1500,0.02225137,0.00375824,-0.0038489,0
2.294,1500,0.02025137,0.00175824,0.0001511,0
2.304,1500,0.02225137,0.00475824,0.0021511,0
2.315,1500,0.01825137,0.00675824,-0.0008489,0
2.325,1500,0.02025137,0.00475824,-0.0008489,0
2.335,1500,0.02325137,0.00275824,0.0011511,0
2.345,1500,0.02025137,0.00375824,0.0031511,0
2.355,1500,0.01725137,0.00575824,0.0031511,0
2.365,1500,0.02525137,0.00675824,0.0001511,0
2.375,1500,0.02125137,0.00475824,-0.0008489,0
2.385,1500,0.01925137,0.00575824,0.0011511,0
2.395,1500,0.01925137,0.00775824,-0.0008489,0
2.405,1500,0.02325137,0.00575824,-0.0008489,0
2.415,1500,0.02225137,0.00575824,-0.0018489,0
2.425,1500,0.01825137,0.00675824,-0.0028489,0
2.435,1500,0.02225137,0.00375824,0.0011511,0
2.445,1500,0.01925137,0.00375824,0.0001511,0
2.455,1500,0.02325137,0.00275824,0.0011511,0
2.465,1500,0.02125137,0.00475824,-0.0008489,0
2.474,1500,0.01825137,0.00375824,0.0001511,0
2.484,1500,0.01925137,0.00475824,0.0021511,0
2.495,1500,0.02225137,0.00375824,0.0041511,0
2.505,1500,0.02125137,0.00475824,0.0011511,0
2.515,1500,0.02025137,0.00575824,0.0001511,0
2.525,1500,0.01825137,0.00275824,0.0011511,0
2.535,1500,0.02225137,0.00475824,0.0001511,0
2.545,1500,0.02125137,0.00475824,-0.0008489,0
2.555,1500,0.02025137,0.00275824,0.0011511,0
2.565,1500,0.02225137,0.00775824,-0.0008489,0
2.575,1500,0.01825137,0.00375824,0.0001511,0
2.584,1500,0.02225137,0.00275824,0.0011511,0
2.595,1500,0.02225137,0.00475824,0.0001511,0
2.605,1500,0.02125137,0.00875824,0.0001511,0
2.615,1500,0.02025137,0.00475824,-0.0008489,0
2.625,1500,0.01925137,0.00575824,0.0011511,0
2.635,1500,0.02125137,0.00575824,0.0011511,0
2.645,1500,0.01925137,0.00275824,0.0001511,0
2.655,1500,0.01725137,0.00675824,0.0021511,0
2.665,1500,0.02325137,0.00575824,-0.0008489,0
2.675,1500,0.02025137,0.00275824,0.0001511,0
2.684,1500,0.01925137,0.00675824,-0.0008489,0
2.695,1500,0.02025137,0.00475824,0.0011511,0
2.705,1500,0.02225137,0.00475824,0.0021511,0
2.715,1500,0.02125137,0.00475824,-0.0008489,0
2.725,1500,0.02025137,0.00375824,-0.0018489,0
2.735,1500,0.02325137,0.00875824,-0.0018489,0
2.745,1500,0.02125137,0.00375824,-0.0008489,0
2.755,1500,0.02325137,0.00575824,-0.0008489,0
2.765,1500,0.01925137,0.00775824,-0.0038489,0
2.775,1500,0.01925137,0.00275824,0.0011511,0
2.785,1500,0.01925137,0.00275824,0.0031511,0
2.795,1500,0.02025137,0.00475824,0.0021511,0
2.805,1500,0.02325137,0.00575824,-0.0018489,0
2.815,1500,0.02125137,0.00175824,0.0021511,0
2.825,1500,0.01925137,0.00575824,0.0011511,0
2.835,1500,0.02025137,0.00875824,-0.0008489,0
2.845,1500,0.01825137,0.00575824,0.0011511,0
2.855,1500,0.02025137,0.00075824,0.0021511,0
2.865,1500,0.02125137,0.00475824,0.0021511,0
2.875,1500,0.02025137,0.00775824,-0.0018489,0
2.885,1500,0.02125137,0.00375824,0.0011511,0
2.894,1500,0.01925137,0.00675824,0.0011511,0
2.906,1500,0.02425137,0.00475824,0.0011511,0
2.915,1500,0.02025137,0.00375824,-0.0018489,0
2.925,1500,0.02025137,0.00475824,-0.0018489,0
2.935,1500,0.02325137,0.00475824,0.0001511,0
2.945,1500,0.02025137,0.00575824,0.0011511,0
2.955,1500,0.02125137,0.00575824,0.0001511,0
2.966,1500,0.01825137,0.00675824,-0.0018489,0
2.975,1500,0.02425137,0.00375824,0.0031511,0
2.985,1500,0.02025137,0.00575824,-0.0018489,0
2.994,1500,0.01725137,0.00675824,-0.0018489,0
3.005,1500,0.02125137,0.00475824,0.0011511,0
3.015,1500,0.02225137,0.00175824,0.0031511,0
3.025,1500,0.02025137,0.00375824,0.0021511,0
3.035,1500,0.02125137,0.00975824,-0.0018489,0
3.044,1500,0.02225137,0.00275824,0.0001511,0
3.055,1500,0.02325137,0.00475824,0.0021511,0
3.065,1500,0.02025137,0.00575824,-0.0008489,0
3.075,1500,0.01925137,0.00675824,-0.0018489,0
3.085,1500,0.02025137,0.00375824,0.0031511,0
3.096,1500,0.02025137,0.00075824,0.0011511,0
3.106,1500,0.02025137,0.00775824,-0.0028489,0
3.115,1500,0.02025137,0.00475824,0.0021511,0
3.125,1500,0.01925137,0.00275824,0.0031511,0
3.135,1500,0.02125137,0.00575824,0.0011511,0
3.145,1500,0.02025137,0.00575824,-0.0028489,0
3.155,1500,0.01925137,0.00675824,0.0011511,0
3.165,1500,0.02125137,0.00575824,0.0041511,0
3.175,1500,0.02025137,0.00375824,0.0001511,0
3.185,1500,0.01725137,0.00575824,-0.0028489,0
3.195,1500,0.01925137,0.00475824,-0.0008489,0
3.206,1500,0.02425137,0.00375824,0.0031511,0
3.216,1500,0.02025137,0.00175824,0.0011511,0
3.225,1500,0.01625137,0.00675824,-0.0008489,0
3.235,1500,0.01825137,0.00475824,-0.0028489,0
3.245,1500,0.02225137,0.00375824,0.0011511,0
3.255,1500,0.01925137,0.00375824,0.0041511,0
3.265,1500,0.02025137,0.00675824,-0.0018489,0
3.275,1500,0.02125137,0.00775824,-0.0018489,0
3.285,1500,0.02325137,-0.00024176,0.0001511,0
3.295,1500,0.01925137,0.00475824,0.0041511,0
3.306,1500,0.02125137,0.01075824,-0.0008489,0
3.316,1500,0.02025137,0.00575824,0.0001511,0
3.325,1500,0.02225137,0.00375824,0.0021511,0
3.335,1500,0.02125137,0.00675824,0.0021511,0
3.345,1500,0.01925137,0.00675824,-0.0008489,0
3.355,1500,0.01925137,0.00375824,0.0021511,0
3.364,1500,0.02225137,0.00375824,0.0011511,0
3.375,1500,0.02125137,0.00775824,-0.0028489,0
3.385,1500,0.01825137,0.00575824,-0.0008489,0
3.395,1500,0.02025137,0.00275824,0.0021511,0
3.405,1500,0.02025137,0.00475824,0.0021511,0
3.415,1500,0.02025137,0.00775824,-0.0008489,0
3.425,1500,0.01725137,0.00675824,-0.0028489,0
3.435,1500,0.02325137,0.00575824,0.0031511,0
3.445,1500,0.02525137,0.00175824,-0.0008489,0
3.456,1500,0.02125137,0.00275824,0.0001511,0
3.466,1500,0.02025137,0.00575824,0.0001511,0
3.476,1500,0.02225137,0.00675824,0.0001511,0
3.485,1500,0.01925137,0.00375824,0.0001511,0
3.495,1500,0.02225137,0.00775824,0.0001511,0
3.505,1500,0.02225137,0.00675824,0.0001511,0
3.515,1500,0.02325137,0.00175824,0.0041511,0
3.525,1500,0.01925137,0.00375824,0.0041511,0
3.535,1500,0.01925137,0.00575824,-0.0008489,0
3.545,1500,0.02125137,0.00375824,-0.0008489,0
3.555,1500,0.01925137,0.00275824,0.0011511,0
3.565,1500,0.02025137,0.00675824,0.0001511,0
3.575,1500,0.04225137,0.02875824,0.0001511,0
3.586,1500,0.02525137,0.01475824,0.0371511,0
3.596,1500,0.02225137,0.04675824,-0.0188489,0
3.605,1500,0.07825137,0.01275824,-0.0578489,0
3.615,1500,0.02325137,0.02275824,0.0071511,0
3.625,1500,0.03725137,0.00175824,0.0661511,0
3.635,1500,0.05225137,-0.05524176,0.0831511,0
3.645,1500,0.03925137,0.02975824,-0.0008489,0
3.655,1500,-0.00474863,0.07075824,-0.0578489,0
3.665,1500,0.01325137,-0.00824176,-0.0168489,0
3.675,1500,0.01425137,-0.04624176,0.0391511,0
3.685,1500,0.01825137,0.00175824,0.0211511,0
3.695,1500,0.02525137,0.03875824,-0.0118489,0
3.705,1500,0.04025137,0.02075824,-0.0178489,0
3.715,1500,-0.00774863,0.01075824,-0.0008489,0
3.726,1500,-0.00474863,-0.01024176,0.0101511,0
3.736,1500,0.00925137,-0.01224176,-0.0008489,0
3.746,1500,0.02525137,0.01975824,-0.0118489,0
3.755,1500,0.03825137,0.02675824,-0.0098489,0
3.765,1500,0.04025137,0.00475824,0.0091511,0
3.775,1500,0.01625137,-0.00524176,0.0131511,0
3.785,1500,0.00025137,-0.00024176,0.0041511,0
3.795,1500,0.01625137,-0.01224176,-0.0018489,0
3.805,1500,0.02525137,0.01275824,-0.0108489,0
3.816,1500,0.03125137,0.01575824,-0.0048489,0
3.825,1500,0.02725137,0.00275824,0.0081511,0
3.835,1500,0.01325137,-0.00024176,0.0061511,0
3.845,1500,-0.00274863,-0.00124176,-0.0098489,0
3.855,1500,0.00825137,0.00575824,-0.0158489,0
3.865,1500,0.01825137,0.01375824,-0.0048489,0
3.875,1500,0.03225137,0.00875824,0.0081511,0
3.886,1500,0.03925137,-0.00224176,0.0101511,0
3.895,1500,0.02325137,0.00075824,0.0021511,0
3.905,1500,0.00625137,0.00375824,-0.0088489,0
3.915,1500,0.01625137,0.00175824,-0.0028489,0
3.925,1500,0.02225137,0.00475824,0.0071511,0
3.936,1500,0.02425137,0.00375824,0.0161511,0
3.946,1500,0.02225137,0.00575824,0.0001511,0
3.956,1500,0.01925137,0.01075824,-0.0148489,0
3.965,1500,0.01125137,0.00075824,-0.0098489,0
3.976,1500,0.01425137,0.00075824,0.0001511,0
3.985,1500,0.02425137,0.00375824,0.0101511,0
3.995,1500,0.02025137,0.01575824,-0.0008489,0
4.005,1500,0.02625137,0.01175824,0.0031511,0
4.015,1500,0.02325137,-0.00224176,0.0051511,0
4.025,1500,0.01325137,-0.00224176,0.0051511,0.005350207771899
4.035,1500,0.01425137,0.00175824,0.0011511,0.005350207771899
4.045,1500,0.02225137,0.00875824,-0.0058489,0.005350207771899
4.055,1500,0.02025137,0.01375824,-0.0048489,0.005350207771899
4.065,1500,0.01325137,0.00075824,0.0061511,0.005350207771899
4.075,1500,0.01425137,-0.00224176,0.0031511,0.005350207771899
4.085,1500,0.01125137,0.00675824,-0.0118489,0.005350207771899
4.096,1500,0.02225137,0.00875824,-0.0098489,0.005350207771899
4.106,1500,0.02025137,0.02375824,-0.0058489,0.005350207771899
4.116,1500,0.05725137,0.07275824,-0.0098489,0.005350207771899
4.126,1500,0.12925137,0.18075824,-0.0488489,0.005350207771899
4.136,1500,0.12725137,0.24575824,-0.0578489,0.005350207771899
4.145,1500,0.18725137,0.27275824,-0.0438489,0.005350207771899
4.155,1500,0.29825137,0.31975824,-0.0128489,0.005350207771899
4.166,1500,0.24525137,0.38075824,-0.0298489,0.005350207771899
4.175,1500,0.34925137,0.48475824,-0.0738489,0.005350207771899
4.186,1500,0.31625137,0.42875824,-0.0608489,0.005350207771899
4.196,1500,0.45525137,0.38775824,0.0451511,0.005350207771899
4.206,1500,0.19525137,0.30675824,0.0041511,0.005350207771899
4.216,1500,0.12325137,0.40375824,-0.1158489,0.005350207771899
4.226,1500,0.15825137,0.26375824,-0.0038489,0.005350207771899
4.235,1500,0.05225137,0.26175824,-0.0948489,0.005350207771899
4.245,1500,0.12925137,0.18075824,-0.1208489,0.005350207771899
4.255,1500,0.07325137,0.13875824,0.0041511,0.005350207771899
4.265,1500,-0.02174863,0.02775824,0.0361511,0.005350207771899
4.275,1500,-0.04074863,0.05575824,-0.1128489,0.005350207771899
4.285,1500,0.12125137,0.14275824,-0.1328489,0.005350207771899
4.296,1500,-0.04974863,-0.07324176,-0.0178489,0.005350207771899
4.306,1500,-0.14774863,-0.13824176,0.0391511,0.005350207771899
4.316,1500,-0.04874863,-0.12524176,0.0451511,0.005350207771899
4.326,1500,-0.19574863,-0.20224176,0.0461511,0.005350207771899
4.335,1500,-0.31574863,-0.24424176,-0.0318489,0.005350207771899
4.345,1500,-0.09974863,-0.33024176,0.0361511,0.005350207771899
4.355,1500,-0.31074863,-0.47024176,-0.1008489,0.005350207771899
4.365,1500,-0.25274863,-0.49324176,-0.1028489,0.005350207771899
4.376,1500,-0.42074863,-0.53924176,-0.0968489,0.005350207771899
4.386,1500,-0.06974863,-0.38824176,0.0161511,0.005350207771899
4.395,1500,-0.22074863,-0.32124176,-0.0148489,0.005350207771899
4.405,1500,-0.12774863,-0.25724176,0.0261511,0.005350207771899
4.416,1500,-0.01174863,-0.22524176,0.0641511,0.005350207771899
4.426,1500,-0.09374863,-0.26124176,0.0311511,0.005350207771899
4.436,1500,-0.06474863,-0.15524176,0.0291511,0.005350207771899
4.446,1500,-0.04074863,-0.09224176,-0.0018489,0.005350207771899
4.456,1500,0.01225137,-0.05224176,0.0061511,0.005350207771899
4.466,1500,0.01325137,-0.02324176,0.0271511,0.005350207771899
4.476,1500,0.01725137,0.00475824,0.0231511,0.005350207771899
4.485,1500,0.03625137,0.04875824,-0.0038489,0.005350207771899
4.495,1500,0.06125137,0.10575824,-0.0348489,0.005350207771899
4.505,1500,0.06225137,0.13275824,-0.0318489,0.005350207771899
4.515,1500,0.17925137,0.19675824,-0.0148489,0.005350207771899
4.525,1500,0.22025137,0.27275824,-0.0188489,0.005350207771899
4.536,1500,0.21525137,0.30575824,-0.0018489,0.005350207771899
4.546,1500,0.23425137,0.34675824,-0.0168489,230.131031541571
4.556,1500,0.16725137,0.31575824,-0.0378489,230.131031541571
4.566,1500,0.28425137,0.36375824,0.0031511,230.131031541571
4.576,1500,0.08525137,0.27775824,-0.0558489,230.131031541571
4.586,1500,0.18625137,0.27575824,0.0481511,230.131031541571
4.595,1500,0.09725137,0.14875824,-0.0798489,230.131031541571
4.605,1500,-0.02674863,0.10475824,-0.1298489,230.131031541571
4.615,1500,-0.12774863,0.15475824,-0.0148489,230.131031541571
4.626,1500,-0.13474863,0.09775824,0.0431511,230.131031541571
4.636,1500,-0.04274863,-0.06224176,-0.0768489,230.131031541571
4.646,1500,0.08825137,0.06575824,0.1161511,230.131031541571
4.656,1500,0.08425137,0.22575824,0.1611511,230.131031541571
4.666,1500,-0.17374863,-0.08324176,0.0491511,230.131031541571
4.676,1500,-0.02774863,-0.11124176,-0.1358489,230.131031541571
4.686,1500,-0.06574863,0.05975824,-0.1098489,230.131031541571
4.695,1500,-0.28374863,0.01375824,-0.0318489,230.131031541571
4.705,1500,0.09325137,0.04875824,0.1521511,230.131031541571
4.715,1500,0.00025137,-0.03524176,-0.0908489,230.131031541571
4.726,1500,-0.01374863,0.16575824,0.2291511,230.131031541571
4.736,1500,-0.15474863,-0.07824176,-0.2128489,230.131031541571
4.746,1500,-0.01574863,-0.06924176,0.0191511,230.131031541571
4.756,1500,-0.11974863,-0.03824176,-0.1608489,230.131031541571
4.766,1500,-0.02674863,0.11175824,0.1121511,230.131031541571
4.776,1500,-0.04274863,-0.14424176,0.0231511,230.131031541571
4.786,1500,0.23025137,-0.09124176,0.0441511,230.131031541571
4.795,1500,-0.45274863,-0.19024176,-0.0548489,230.131031541571
4.805,1500,-0.43374863,-0.32924176,-0.1348489,230.131031541571
4.816,1500,-0.11074863,-0.37124176,0.1161511,230.131031541571
4.826,1500,-0.17174863,-0.36524176,-0.0358489,230.131031541571
4.836,1500,-0.11874863,-0.20924176,0.0401511,230.131031541571
4.846,1500,-0.21074863,-0.27324176,-0.0348489,230.131031541571
4.856,1500,-0.09774863,-0.40924176,0.0351511,230.131031541571
4.866,1500,-0.15874863,-0.45224176,0.0441511,230.131031541571
4.876,1500,-0.12274863,-0.30524176,0.0121511,230.131031541571
4.886,1500,-0.05174863,-0.18524176,-0.0138489,230.131031541571
4.896,1500,-0.05674863,-0.14424176,0.0131511,230.131031541571
4.905,1500,0.00525137,-0.10324176,0.0171511,230.131031541571
4.916,1500,-0.01374863,-0.07724176,0.0141511,230.131031541571
4.925,1500,-0.06174863,-0.10724176,0.0101511,230.131031541571
4.936,1500,0.00125137,-0.05424176,-0.0128489,230.131031541571
4.946,1500,0.03225137,-0.00924176,-0.0038489,230.131031541571
4.956,1500,0.06625137,0.07175824,0.0031511,230.131031541571
4.966,1500,0.09325137,0.11875824,0.0011511,230.131031541571
4.976,1500,0.10025137,0.16275824,-0.0068489,230.131031541571
4.986,1500,0.13725137,0.21075824,-0.0068489,230.131031541571
4.995,1500,0.15225137,0.24175824,-0.0068489,230.131031541571
5.005,1500,0.18525137,0.26975824,-0.0148489,230.131031541571
5.015,1500,0.17625137,0.28775824,-0.0168489,230.131031541571
5.025,1500,0.21525137,0.27275824,-0.0748489,230.131031541571
5.035,1500,0.13025137,0.25375824,-0.0498489,230.131031541571
5.046,1500,0.24325137,0.26775824,-0.0128489,230.131031541571
5.056,1500,-0.00974863,0.20675824,-0.0778489,245.907557763337
5.066,1500,0.01425137,0.18475824,-0.0028489,245.907557763337
5.076,1500,0.05725137,0.09375824,-0.0918489,245.907557763337
5.086,1500,0.04625137,0.04875824,-0.0138489,245.907557763337
5.096,1500,0.12925137,0.04275824,0.0951511,245.907557763337
5.106,1500,-0.05374863,0.01475824,-0.0128489,245.907557763337
5.116,1500,-0.06874863,0.01375824,-0.0818489,245.907557763337
5.126,1500,0.16425137,0.09875824,0.0121511,245.907557763337
5.136,1500,0.05325137,0.07975824,0.0161511,245.907557763337
5.146,1500,0.08325137,0.01475824,0.0451511,245.907557763337
5.156,1500,-0.06774863,-0.01424176,-0.0108489,245.907557763337
5.166,1500,-0.00774863,-0.04724176,-0.0038489,245.907557763337
5.176,1500,0.05525137,-0.00624176,0.0421511,245.907557763337
5.186,1500,0.04525137,0.05675824,0.0041511,245.907557763337
5.195,1500,-0.04574863,0.07875824,0.0171511,245.907557763337
5.205,1500,0.08025137,0.08575824,0.0741511,245.907557763337
5.216,1500,-0.08674863,0.01675824,0.0751511,245.907557763337
5.226,1500,-0.13274863,-0.10724176,0.0071511,245.907557763337
5.236,1500,-0.03974863,-0.11524176,0.0401511,245.907557763337
5.246,1500,-0.01474863,-0.01424176,-0.0408489,245.907557763337
5.256,1500,0.02925137,0.04575824,-0.0218489,245.907557763337
5.266,1500,0.02025137,0.01075824,-0.0508489,245.907557763337
5.276,1500,-0.12574863,-0.07724176,-0.0168489,245.907557763337
5.286,1500,-0.12874863,-0.27824176,-0.0578489,245.907557763337
5.296,1500,-0.05974863,-0.34824176,0.0071511,245.907557763337
5.305,1500,-0.09474863,-0.37024176,0.0171511,245.907557763337
5.315,1500,-0.04174863,-0.24624176,0.0311511,245.907557763337
5.325,1500,-0.08874863,-0.22724176,0.0401511,245.907557763337
5.336,1500,-0.18974863,-0.25824176,-0.0078489,245.907557763337
5.345,1500,-0.15674863,-0.35124176,0.0621511,245.907557763337
5.356,1500,-0.08574863,-0.32324176,0.0601511,245.907557763337
5.366,1500,-0.05074863,-0.24224176,0.0041511,245.907557763337
5.375,1500,-0.02874863,-0.16424176,0.0271511,245.907557763337
5.386,1500,-0.00574863,-0.09924176,-0.0048489,245.907557763337
5.396,1500,-0.00774863,-0.07024176,0.0001511,245.907557763337
5.406,1500,0.00525137,-0.03424176,0.0171511,245.907557763337
5.416,1500,0.02225137,-0.00224176,0.0181511,245.907557763337
5.426,1500,0.03625137,0.07075824,-0.0088489,245.907557763337
5.436,1500,0.04725137,0.10975824,-0.0078489,245.907557763337
5.446,1500,0.17825137,0.17675824,0.0171511,245.907557763337
5.456,1500,0.12425137,0.20775824,-0.0198489,245.907557763337
5.466,1500,0.17625137,0.26475824,-0.0048489,245.907557763337
5.476,1500,0.15125137,0.27275824,0.0041511,245.907557763337
5.485,1500,0.23425137,0.31275824,0.0021511,245.907557763337
5.495,1500,0.15925137,0.28475824,0.0001511,245.907557763337
5.506,1500,0.17025137,0.20075824,-0.0358489,245.907557763337
5.516,1500,0.25725137,0.26375824,-0.0238489,245.907557763337
5.526,1500,0.03425137,0.14675824,-0.0438489,245.907557763337
5.536,1500,0.22325137,0.18775824,0.0201511,245.907557763337
5.546,1500,-0.01074863,0.15675824,0.0491511,245.907557763337
5.556,1500,0.11025137,0.11775824,0.0391511,245.907557763337
5.566,1500,0.01325137,0.05275824,0.0741511,245.907557763337
5.576,1500,0.20425137,0.03675824,0.0481511,233.709235739108
5.586,1500,0.02725137,-0.05324176,-0.0198489,233.709235739108
5.596,1500,-0.27074863,-0.04224176,-0.0878489,233.709235739108
5.605,1500,0.01725137,0.11575824,0.0051511,233.709235739108
5.616,1500,0.17425137,0.14575824,0.0871511,233.709235739108
5.626,1500,0.18025137,0.06875824,-0.0618489,233.709235739108
5.636,1500,-0.20574863,-0.02624176,-0.1108489,233.709235739108
5.646,1500,-0.18274863,-0.08524176,-0.0238489,233.709235739108
5.656,1500,0.22025137,-0.02824176,0.1421511,233.709235739108
5.666,1500,-0.07274863,0.01275824,0.0771511,233.709235739108
5.676,1500,-0.09874863,0.09375824,-0.0468489,233.709235739108
5.686,1500,0.19525137,0.12875824,-0.0178489,233.709235739108
5.696,1500,0.02725137,0.01275824,0.0131511,233.709235739108
5.706,1500,-0.15774863,-0.09124176,0.0011511,233.709235739108
5.716,1500,-0.21074863,-0.18124176,0.0091511,233.709235739108
5.726,1500,-0.08374863,-0.26224176,0.0321511,233.709235739108
5.736,1500,-0.07874863,-0.16524176,0.0041511,233.709235739108
5.746,1500,-0.25274863,-0.14624176,-0.0698489,233.709235739108
5.756,1500,-0.19374863,-0.22524176,0.0031511,233.709235739108
5.766,1500,-0.13374863,-0.33124176,0.0301511,233.709235739108
5.776,1500,-0.07574863,-0.41724176,0.0481511,233.709235739108
5.786,1500,-0.16174863,-0.36724176,0.0311511,233.709235739108
5.796,1500,-0.06874863,-0.26124176,0.0011511,233.709235739108
5.806,1500,-0.01974863,-0.23724176,-0.0168489,233.709235739108
5.816,1500,-0.05674863,-0.15624176,0.0031511,233.709235739108
5.826,1500,-0.02874863,-0.15424176,0.0071511,233.709235739108
5.837,1500,-0.02074863,-0.11024176,0.0271511,233.709235739108
5.846,1500,-0.02774863,-0.06024176,0.0151511,233.709235739108
5.856,1500,-0.00974863,-0.07624176,-0.0028489,233.709235739108
5.866,1500,0.00125137,-0.05824176,-0.0268489,233.709235739108
5.876,1500,-0.01474863,-0.03824176,-0.0218489,233.709235739108
5.886,1500,-0.02074863,-0.02524176,0.0081511,233.709235739108
5.896,1500,-0.00774863,-0.00424176,0.0111511,233.709235739108
5.906,1500,0.00925137,0.00975824,0.0101511,233.709235739108
5.916,1500,0.00725137,0.01675824,-0.0048489,233.709235739108
5.926,1500,0.01825137,0.01875824,-0.0188489,233.709235739108
5.936,1500,0.03925137,-0.00424176,-0.0018489,233.709235739108
5.946,1500,0.03825137,0.02375824,0.0111511,233.709235739108
5.956,1500,0.02725137,0.04075824,0.0021511,233.709235739108
5.966,1500,-0.02374863,0.05875824,0.0061511,233.709235739108
5.976,1500,0.11225137,0.10475824,0.0671511,233.709235739108
5.986,1500,0.07025137,0.06575824,-0.0168489,233.709235739108
5.996,1500,-0.04674863,0.05875824,0.0471511,233.709235739108
6.006,1500,-0.02374863,0.03375824,-0.0048489,233.709235739108
6.017,1500,-0.00674863,0.12575824,0.1211511,233.709235739108
6.027,1500,-0.15874863,-0.02424176,-0.0688489,233.709235739108
6.037,1500,0.32025137,0.15575824,0.1391511,233.709235739108
6.047,1500,0.13025137,0.09775824,0.1051511,233.709235739108
6.056,1500,0.14825137,0.06075824,0.1381511,233.709235739108
6.066,1500,0.20825137,0.23175824,0.3301511,233.709235739108
6.076,1500,0.27025137,0.09975824,0.0711511,233.709235739108
6.086,1500,-0.59274863,-0.19824176,-0.2068489,233.709235739108
6.096,1500,0.35025137,0.24175824,0.3841511,110.569731787142
6.106,1500,-0.01674863,-0.16924176,-0.3558489,110.569731787142
6.116,1500,-0.02774863,0.15475824,0.2541511,110.569731787142
6.126,1500,-0.07774863,-0.05824176,-0.0968489,110.569731787142
6.136,1500,-0.00674863,0.02075824,0.1941511,110.569731787142
6.146,1500,-0.05674863,0.08975824,0.2891511,110.569731787142
6.156,1500,0.32025137,-0.07624176,-0.1818489,110.569731787142
6.166,1500,0.06725137,0.12275824,0.2691511,110.569731787142
6.176,1500,0.04225137,-0.04424176,-0.1628489,110.569731787142
6.186,1500,-0.37074863,-0.06424176,0.0231511,110.569731787142
6.196,1500,-0.14974863,-0.04824176,-0.0698489,110.569731787142
6.206,1500,-0.02974863,0.00575824,0.1081511,110.569731787142
6.216,1500,0.17625137,-0.01724176,0.0341511,110.569731787142
6.226,1500,-0.27574863,-0.14124176,-0.0918489,110.569731787142
6.237,1500,0.10425137,0.16975824,0.2531511,110.569731787142
6.247,1500,-0.15474863,-0.05824176,-0.1428489,110.569731787142
6.256,1500,0.10725137,-0.02424176,-0.0078489,110.569731787142
6.266,1500,0.17025137,0.08975824,0.0241511,110.569731787142
6.276,1500,-0.58674863,-0.20824176,-0.1448489,110.569731787142
6.286,1500,0.43525137,0.06875824,0.0221511,110.569731787142
6.296,1500,-0.43174863,0.01075824,0.0431511,110.569731787142
6.306,1500,-0.01674863,-0.13524176,-0.1388489,110.569731787142
6.316,1500,0.15125137,0.05475824,-0.0068489,110.569731787142
6.326,1500,-0.09674863,0.02575824,0.0771511,110.569731787142
6.336,1500,-0.06074863,-0.14324176,-0.1108489,110.569731787142
6.346,1500,0.23125137,0.13775824,0.2691511,110.569731787142
6.356,1500,0.20725137,0.03075824,0.0191511,110.569731787142
6.366,1500,-0.45874863,-0.07624176,0.0041511,110.569731787142
6.376,1500,0.17125137,0.20275824,0.2271511,110.569731787142
6.386,1500,-0.08774863,-0.22224176,-0.3688489,110.569731787142
6.396,1500,0.13425137,-0.03124176,0.0211511,110.569731787142
6.406,1500,0.48125137,0.00875824,-0.1608489,110.569731787142
6.416,1500,-0.10974863,-0.10724176,-0.0088489,110.569731787142
6.426,1500,0.23125137,0.12875824,0.1081511,110.569731787142
6.436,1500,-0.14074863,-0.10524176,-0.0378489,110.569731787142
6.446,1500,0.01425137,0.01175824,0.0191511,110.569731787142
6.457,1500,-0.16574863,-0.01624176,0.0271511,110.569731787142
6.467,1500,0.03025137,-0.00124176,0.0361511,110.569731787142
6.477,1500,-0.15274863,0.00475824,0.0621511,110.569731787142
6.487,1500,0.26325137,-0.13124176,-0.1868489,110.569731787142
6.496,1500,-0.08474863,0.03375824,0.1091511,110.569731787142
6.506,1500,-0.00074863,-0.01324176,-0.0488489,110.569731787142
6.516,1500,-0.05974863,-0.17324176,-0.3028489,110.569731787142
6.526,1500,0.09825137,0.14875824,0.3821511,110.569731787142
6.536,1500,-0.04474863,-0.15424176,-0.2798489,110.569731787142
6.546,1500,0.09125137,0.10375824,0.0971511,110.569731787142
6.556,1500,0.14725137,-0.02224176,-0.0058489,110.569731787142
6.567,1500,-0.04974863,-0.05924176,-0.0498489,110.569731787142
6.577,1500,0.07125137,0.03175824,0.1911511,110.569731787142
6.587,1500,0.09925137,0.00275824,-0.0038489,110.569731787142
6.597,1500,-0.24974863,-0.02124176,0.0941511,110.569731787142
6.606,1500,0.14325137,-0.02324176,-0.0308489,110.569731787142
6.616,1500,-0.17874863,-0.01724176,-0.0028489,112.748827072298
6.626,1500,-0.01074863,-0.04524176,-0.0458489,112.748827072298
6.636,1500,0.00325137,-0.03524176,-0.0248489,112.748827072298
6.646,1500,0.30525137,0.08275824,0.0721511,112.748827072298
6.656,1500,-0.18274863,-0.14524176,-0.2668489,112.748827072298
6.666,1500,0.19125137,-0.04924176,-0.0178489,112.748827072298
6.677,1500,0.31925137,0.11575824,0.0961511,112.748827072298
6.687,1500,-0.23874863,-0.12124176,-0.0498489,112.748827072298
6.697,1500,0.06825137,0.02875824,0.0451511,112.748827072298
6.706,1500,-0.20974863,-0.02824176,0.0821511,112.748827072298
6.716,1500,0.19225137,-0.11324176,-0.2388489,112.748827072298
6.726,1500,-0.36874863,-0.09424176,-0.1048489,112.748827072298
6.736,1500,-0.00574863,0.13075824,0.2181511,112.748827072298
6.746,1500,-0.19774863,-0.17524176,-0.3438489,112.748827072298
6.756,1500,0.27825137,0.20375824,0.2811511,112.748827072298
6.766,1500,0.26525137,-0.13424176,-0.2608489,112.748827072298
6.777,1500,-0.57374863,-0.09224176,0.0001511,112.748827072298
6.787,1500,0.27125137,0.12275824,0.3731511,112.748827072298
6.797,1500,-0.18774863,-0.15324176,-0.2448489,112.748827072298
6.807,1500,-0.10174863,-0.06324176,0.1671511,112.748827072298
6.817,1500,0.10625137,0.01575824,0.2111511,112.748827072298
6.826,1500,0.03525137,-0.11224176,-0.0948489,112.748827072298
6.836,1500,-0.04774863,-0.17424176,-0.2808489,112.748827072298
6.846,1500,0.06425137,-0.09824176,-0.0518489,112.748827072298
6.856,1500,-0.11474863,-0.04624176,0.1261511,112.748827072298
6.866,1500,0.13425137,-0.02524176,0.0461511,112.748827072298
6.876,1500,0.04225137,-0.10124176,-0.0308489,112.748827072298
6.886,1500,0.05925137,-0.13224176,-0.0218489,112.748827072298
6.896,1500,-0.00574863,-0.09624176,-0.0428489,112.748827072298
6.906,1500,0.03625137,-0.04624176,0.0461511,112.748827072298
6.916,1500,-0.01174863,-0.11124176,-0.0378489,112.748827072298
6.926,1500,-0.05174863,-0.05624176,0.0071511,112.748827072298
6.936,1500,-0.02674863,-0.05724176,0.0071511,112.748827072298
6.946,1500,-0.01374863,-0.05624176,-0.0328489,112.748827072298
6.956,1500,-0.00274863,-0.01824176,0.0041511,112.748827072298
6.966,1500,-0.01974863,-0.04024176,0.0021511,112.748827072298
6.977,1500,0.01225137,-0.01824176,-0.0048489,112.748827072298
6.987,1500,0.01525137,-0.00824176,0.0011511,112.748827072298
6.997,1500,0.02825137,0.01375824,0.0041511,112.748827072298
7.007,1500,0.02725137,0.05175824,0.0061511,112.748827072298
7.017,1500,0.05825137,0.07775824,0.0041511,112.748827072298
7.027,1500,0.07625137,0.11375824,0.0061511,112.748827072298
7.037,1500,0.08825137,0.12575824,-0.0088489,112.748827072298
7.046,1500,0.03625137,0.15175824,-0.0028489,112.748827072298
7.056,1500,0.08225137,0.17575824,-0.0208489,112.748827072298
7.066,1500,0.09925137,0.16475824,0.0191511,112.748827072298
7.076,1500,-0.00674863,0.21775824,0.1401511,112.748827072298
7.086,1500,0.17925137,0.15775824,-0.0568489,112.748827072298
7.097,1500,0.14825137,0.11075824,-0.0528489,112.748827072298
7.107,1500,-0.07674863,0.09475824,-0.0318489,112.748827072298
7.117,1500,-0.04874863,0.09675824,0.0881511,112.748827072298
7.127,1500,-0.00074863,-0.02824176,-0.1328489,112.748827072298
7.137,1500,-0.11574863,0.04075824,0.0291511,105.160654567713
7.147,1500,0.04525137,0.07475824,0.0581511,105.160654567713
7.157,1500,-0.24674863,-0.02224176,-0.0498489,105.160654567713
7.167,1500,-0.21974863,0.01675824,0.0861511,105.160654567713
7.176,1500,-0.11874863,0.05075824,0.1461511,105.160654567713
7.186,1500,0.06525137,0.09675824,0.3751511,105.160654567713
7.196,1500,0.00025137,0.10675824,0.2381511,105.160654567713
7.206,1500,-0.06774863,-0.06324176,-0.1298489,105.160654567713
7.216,1500,0.03625137,-0.12724176,-0.2218489,105.160654567713
7.227,1500,0.20525137,-0.04424176,-0.3068489,105.160654567713
7.237,1500,0.03525137,-0.08724176,-0.1038489,105.160654567713
7.247,1500,0.07125137,-0.00124176,-0.0138489,105.160654567713
7.257,1500,-0.04074863,0.02875824,-0.0258489,105.160654567713
7.267,1500,-0.21274863,-0.06924176,0.0331511,105.160654567713
7.277,1500,-0.02074863,0.05575824,0.1601511,105.160654567713
7.287,1500,0.14925137,0.09375824,0.1871511,105.160654567713
7.297,1500,-0.09774863,-0.10424176,-0.2738489,105.160654567713
7.307,1500,-0.19074863,-0.07024176,-0.4448489,105.160654567713
7.317,1500,-0.18474863,-0.06124176,-0.2228489,105.160654567713
7.327,1500,0.04625137,0.03175824,0.0721511,105.160654567713
7.337,1500,0.01925137,0.03575824,0.2051511,105.160654567713
7.347,1500,0.01625137,0.03175824,0.2481511,105.160654567713
7.357,1500,0.03625137,0.04475824,0.1961511,105.160654567713
7.367,1500,0.26525137,-0.00324176,-0.0418489,105.160654567713
7.377,1500,0.50625137,0.11975824,0.3111511,105.160654567713
7.387,1500,0.10325137,0.00375824,-0.0818489,105.160654567713
7.397,1500,0.17525137,0.02375824,-0.1148489,105.160654567713
7.407,1500,-0.33974863,-0.20724176,-0.3008489,105.160654567713
7.417,1500,-0.17474863,-0.11124176,-0.1668489,105.160654567713
7.426,1500,-0.10574863,-0.06924176,-0.1198489,105.160654567713
7.436,1500,0.27225137,-0.23624176,-0.0758489,105.160654567713
7.446,1500,-0.09374863,-0.24524176,0.1481511,105.160654567713
7.456,1500,-0.12174863,-0.23624176,-0.0658489,105.160654567713
7.466,1500,-0.36574863,-0.25824176,-0.0208489,105.160654567713
7.476,1500,-0.05774863,-0.25424176,-0.0088489,105.160654567713
7.486,1500,-0.10974863,-0.24724176,0.0311511,105.160654567713
7.497,1500,-0.02774863,-0.18024176,0.0591511,105.160654567713
7.507,1500,-0.08674863,-0.16424176,0.0301511,105.160654567713
7.517,1500,-0.01874863,-0.12724176,-0.0048489,105.160654567713
7.527,1500,-0.00074863,-0.10224176,0.0021511,105.160654567713
7.537,1500,-0.05874863,-0.06124176,-0.0008489,105.160654567713
7.547,1500,-0.05474863,-0.02524176,-0.0028489,105.160654567713
7.557,1500,-0.04274863,-0.05424176,0.0051511,105.160654567713
7.567,1500,-0.03374863,-0.07324176,0.0011511,105.160654567713
7.577,1500,-0.02674863,-0.04224176,-0.0038489,105.160654567713
7.587,1500,0.03825137,-0.03624176,0.0021511,105.160654567713
7.597,1500,-0.10374863,-0.13224176,0.0641511,105.160654567713
7.607,1500,-0.09974863,-0.22724176,0.0101511,105.160654567713
7.617,1500,-0.09274863,-0.28324176,0.0201511,105.160654567713
7.626,1500,-0.14374863,-0.28224176,0.0701511,105.160654567713
7.636,1500,0.02325137,-0.23224176,0.0081511,105.160654567713
7.647,1500,-0.09074863,-0.23424176,0.0621511,105.160654567713
7.657,1500,0.07625137,-0.17624176,0.0941511,68.0533560928617
7.667,1500,-0.03174863,-0.17924176,-0.0098489,68.0533560928617
7.677,1500,-0.11174863,-0.16324176,-0.0038489,68.0533560928617
7.687,1500,-0.20974863,-0.19524176,0.0121511,68.0533560928617
7.697,1500,-0.05874863,-0.11124176,0.0121511,68.0533560928617
7.707,1500,-0.14674863,-0.07224176,0.0131511,68.0533560928617
7.717,1500,-0.37674863,-0.16824176,-0.2688489,68.0533560928617
7.727,1500,-0.09774863,-0.07824176,-0.0698489,68.0533560928617
7.737,1500,-0.01374863,-0.03424176,0.0451511,68.0533560928617
7.747,1500,0.19925137,0.07675824,0.1841511,68.0533560928617
7.757,1500,0.07225137,0.05675824,0.2121511,68.0533560928617
7.767,1500,0.10525137,-0.00224176,-0.0108489,68.0533560928617
7.777,1500,0.23425137,-0.02124176,-0.1098489,68.0533560928617
7.787,1500,0.13925137,-0.13224176,-0.2708489,68.0533560928617
7.797,1500,-0.19274863,-0.09024176,-0.0558489,68.0533560928617
7.807,1500,-0.08274863,0.00075824,-0.0388489,68.0533560928617
7.817,1500,-0.02074863,0.01175824,0.0551511,68.0533560928617
7.826,1500,-0.03774863,-0.00724176,0.3001511,68.0533560928617
7.836,1500,0.04825137,0.06775824,0.0821511,68.0533560928617
7.846,1500,-0.03074863,-0.12824176,-0.2438489,68.0533560928617
7.857,1500,0.09925137,-0.06324176,-0.0458489,68.0533560928617
7.867,1500,-0.13774863,0.04975824,0.0681511,68.0533560928617
7.877,1500,-0.10074863,0.05675824,0.0461511,68.0533560928617
7.887,1500,-0.01074863,-0.01824176,0.1281511,68.0533560928617
7.896,1500,-0.10174863,-0.00224176,0.0651511,68.0533560928617
7.907,1500,-0.05274863,0.04175824,0.1311511,68.0533560928617
7.917,1500,0.16425137,0.04975824,0.0891511,68.0533560928617
7.927,1500,0.07225137,0.06775824,0.0971511,68.0533560928617
7.937,1500,0.11125137,0.00475824,-0.0598489,68.0533560928617
7.947,1500,0.14125137,0.01975824,-0.2118489,68.0533560928617
7.957,1500,0.00225137,-0.07824176,-0.2908489,68.0533560928617
7.967,1500,-0.05274863,0.03875824,0.0761511,68.0533560928617
7.977,1500,-0.07474863,0.04175824,0.0451511,68.0533560928617
7.987,1500,0.09125137,0.16875824,0.1561511,68.0533560928617
7.997,1500,-0.06374863,0.05575824,-0.1028489,68.0533560928617
8.007,1500,0.37525137,0.23075824,0.0341511,68.0533560928617
8.017,1500,-0.02474863,0.15475824,-0.0308489,68.0533560928617
8.027,1500,0.11825137,0.18075824,-0.0518489,68.0533560928617
8.037,1500,0.22825137,0.19275824,0.0041511,68.0533560928617
8.047,1500,0.21025137,0.11975824,-0.0148489,68.0533560928617
8.056,1500,0.14125137,0.14275824,-0.0078489,68.0533560928617
8.067,1500,0.07625137,0.09375824,-0.0658489,68.0533560928617
8.077,1500,0.06525137,0.07475824,0.0071511,68.0533560928617
8.087,1500,0.06225137,0.05075824,-0.0108489,68.0533560928617
8.097,1500,0.05625137,0.02875824,0.0041511,68.0533560928617
8.107,1500,0.03725137,0.04175824,0.0001511,68.0533560928617
8.117,1500,0.00225137,0.02275824,-0.0038489,68.0533560928617
8.127,1500,0.00625137,0.00275824,0.0041511,68.0533560928617
8.137,1500,0.00925137,0.00075824,0.0041511,68.0533560928617
8.147,1500,0.01025137,-0.01224176,0.0091511,68.0533560928617
8.157,1500,-0.00674863,-0.02124176,0.0041511,68.0533560928617
8.167,1500,-0.02274863,-0.02424176,-0.0088489,68.0533560928617
8.177,1500,-0.01174863,-0.02824176,0.0041511,68.0533560928617
8.187,1500,-0.01474863,-0.04124176,-0.0028489,133.235092659677
8.198,1500,0.01025137,-0.05724176,0.0011511,133.235092659677
8.207,1500,-0.02074863,-0.06224176,0.0511511,133.235092659677
8.217,1500,-0.00474863,-0.07724176,0.0231511,133.235092659677
8.227,1500,-0.04474863,-0.09624176,0.0031511,133.235092659677
8.237,1500,-0.09274863,-0.09524176,-0.0088489,133.235092659677
8.247,1500,-0.09174863,-0.13224176,-0.0678489,133.235092659677
8.257,1500,-0.11074863,-0.09624176,0.0051511,133.235092659677
8.267,1500,0.05325137,-0.09324176,0.0051511,133.235092659677
8.277,1500,-0.02674863,-0.12824176,-0.0578489,133.235092659677
8.287,1500,-0.02974863,-0.07824176,0.0461511,133.235092659677
8.297,1500,-0.23374863,-0.10024176,0.0041511,133.235092659677
8.307,1500,0.01225137,-0.08124176,-0.0238489,133.235092659677
8.317,1500,-0.07774863,-0.08124176,-0.0228489,133.235092659677
8.327,1500,-0.09674863,-0.05024176,0.0511511,133.235092659677
8.337,1500,0.38925137,0.07475824,0.0681511,133.235092659677
8.347,1500,-0.26374863,-0.12324176,-0.1538489,133.235092659677
8.357,1500,-0.16674863,0.05375824,0.1311511,133.235092659677
8.367,1500,0.07925137,-0.07024176,-0.1338489,133.235092659677
8.377,1500,0.14925137,0.06875824,0.0501511,133.235092659677
8.387,1500,-0.33074863,-0.11524176,-0.0798489,133.235092659677
8.396,1500,0.08625137,0.05075824,-0.0028489,133.235092659677
8.407,1500,0.20025137,0.01975824,0.0811511,133.235092659677
8.417,1500,0.10625137,-0.08524176,-0.1088489,133.235092659677
8.427,1500,-0.06374863,0.00575824,0.1191511,133.235092659677
8.437,1500,0.22825137,0.05575824,0.0941511,133.235092659677
8.447,1500,-0.28874863,-0.11524176,-0.0508489,133.235092659677
8.457,1500,-0.02874863,0.00375824,0.0091511,133.235092659677
8.467,1500,-0.09974863,0.08775824,0.1571511,133.235092659677
8.477,1500,-0.04674863,-0.15824176,-0.0638489,133.235092659677
8.487,1500,0.27225137,0.10075824,0.0901511,133.235092659677
8.497,1500,-0.14074863,-0.11224176,-0.0948489,133.235092659677
8.507,1500,-0.00274863,-0.04624176,-0.0888489,133.235092659677
8.517,1500,0.00625137,0.16875824,0.1821511,133.235092659677
8.527,1500,-0.31374863,-0.18724176,-0.1078489,133.235092659677
8.537,1500,0.11925137,-0.02324176,-0.0218489,133.235092659677
8.547,1500,0.11625137,0.00875824,0.0251511,133.235092659677
8.558,1500,-0.01874863,-0.05024176,-0.0358489,133.235092659677
8.567,1500,-0.15674863,-0.06524176,0.0111511,133.235092659677
8.577,1500,0.31725137,0.00975824,-0.0028489,133.235092659677
8.587,1500,0.08425137,-0.01124176,0.0631511,133.235092659677
8.597,1500,-0.09474863,-0.06324176,-0.0618489,133.235092659677
8.607,1500,0.03425137,0.07475824,0.0961511,133.235092659677
8.617,1500,0.21525137,-0.05124176,-0.0148489,133.235092659677
8.628,1500,0.06125137,-0.04624176,-0.0868489,133.235092659677
8.638,1500,0.00225137,0.05475824,0.1771511,133.235092659677
8.647,1500,0.01325137,-0.06024176,-0.1008489,133.235092659677
8.657,1500,-0.25674863,-0.01824176,0.0421511,133.235092659677
8.667,1500,0.13525137,0.00775824,0.0951511,133.235092659677
8.677,1500,-0.11774863,-0.07324176,0.0091511,133.235092659677
8.687,1500,0.02125137,0.01575824,0.0841511,133.235092659677
8.698,1500,-0.23674863,-0.02024176,0.0341511,133.235092659677
8.707,1500,-0.13174863,-0.07424176,-0.0188489,115.940555679079
8.717,1500,0.17025137,0.03175824,0.0141511,115.940555679079
8.727,1500,0.00025137,-0.05924176,-0.0268489,115.940555679079
8.737,1500,-0.00574863,-0.04824176,-0.0318489,115.940555679079
8.747,1500,-0.23374863,-0.01124176,0.0411511,115.940555679079
8.757,1500,0.19225137,0.01375824,0.0171511,115.940555679079
8.767,1500,0.06625137,-0.07724176,-0.1218489,115.940555679079
8.777,1500,0.07625137,0.03875824,0.1151511,115.940555679079
8.787,1500,-0.03874863,-0.08024176,-0.1098489,115.940555679079
8.797,1500,0.00625137,0.04475824,0.1041511,115.940555679079
8.808,1500,-0.04574863,-0.00724176,-0.0178489,115.940555679079
8.818,1500,-0.04274863,0.03375824,0.1011511,115.940555679079
8.827,1500,-0.09674863,-0.06524176,-0.0858489,115.940555679079
8.837,1500,-0.18274863,0.01175824,0.0911511,115.940555679079
8.847,1500,0.31225137,0.05875824,0.1271511,115.940555679079
8.857,1500,-0.07374863,-0.06124176,-0.0768489,115.940555679079
8.867,1500,0.15725137,-0.00924176,-0.0278489,115.940555679079
8.877,1500,0.06725137,0.00875824,-0.0088489,115.940555679079
8.887,1500,-0.09874863,-0.05524176,-0.0178489,115.940555679079
8.897,1500,0.24725137,0.05575824,0.0831511,115.940555679079
8.907,1500,-0.16674863,-0.05624176,-0.0018489,115.940555679079
8.917,1500,-0.01974863,-0.01024176,-0.0178489,115.940555679079
8.928,1500,-0.17474863,-0.00224176,0.0151511,115.940555679079
8.938,1500,0.05525137,0.00775824,0.0781511,115.940555679079
8.948,1500,-0.00474863,-0.06624176,-0.0228489,115.940555679079
8.957,1500,-0.06874863,0.05075824,0.1331511,115.940555679079
8.967,1500,0.16225137,0.03975824,0.0221511,115.940555679079
8.977,1500,-0.35874863,-0.15224176,-0.1518489,115.940555679079
8.987,1500,0.26125137,0.11775824,0.1001511,115.940555679079
8.997,1500,-0.18074863,-0.07624176,-0.0638489,115.940555679079
9.007,1500,0.09125137,0.03375824,0.0901511,115.940555679079
9.017,1500,-0.12374863,0.03775824,0.0221511,115.940555679079
9.027,1500,-0.09074863,-0.06324176,-0.0408489,115.940555679079
9.038,1500,0.25025137,0.06175824,0.0921511,115.940555679079
9.048,1500,-0.25074863,-0.02124176,-0.0468489,115.940555679079
9.058,1500,0.04225137,-0.00424176,0.0051511,115.940555679079
9.067,1500,-0.22474863,0.00775824,0.0171511,115.940555679079
9.077,1500,-0.05474863,0.03175824,0.0591511,115.940555679079
9.087,1500,0.10825137,0.10175824,0.1621511,115.940555679079
9.097,1500,0.27525137,0.05975824,-0.0818489,115.940555679079
9.107,1500,0.08325137,0.04275824,-0.0518489,115.940555679079
9.117,1500,0.06825137,0.06175824,0.0751511,115.940555679079
9.127,1500,-0.18174863,0.07875824,-0.0128489,115.940555679079
9.137,1500,0.10425137,0.04675824,-0.0798489,115.940555679079
9.148,1500,0.01425137,0.07075824,0.0601511,115.940555679079
9.158,1500,0.04725137,0.06075824,-0.0018489,115.940555679079
9.168,1500,0.05525137,0.06475824,0.0071511,115.940555679079
9.177,1500,0.02625137,0.05875824,-0.0058489,115.940555679079
9.187,1500,-0.03574863,0.04475824,-0.0148489,115.940555679079
9.197,1500,0.07325137,0.05575824,0.0151511,115.940555679079
9.207,1500,0.04925137,0.02475824,0.0061511,115.940555679079
9.217,1500,0.02225137,0.00475824,0.0091511,115.940555679079
9.227,1500,0.02225137,0.00575824,0.0041511,115.940555679079
9.237,1500,0.01325137,0.01875824,-0.0078489,115.940555679079
9.247,1500,-0.01574863,0.00475824,-0.0048489,70.1230052144602
9.258,1500,0.00525137,-0.00824176,-0.0068489,70.1230052144602
9.268,1500,0.00425137,0.00075824,0.0091511,70.1230052144602
9.278,1500,-0.00274863,-0.01724176,0.0071511,70.1230052144602
9.288,1500,0.00525137,-0.04724176,0.0081511,70.1230052144602
9.298,1500,-0.01574863,-0.10124176,0.0071511,70.1230052144602
9.308,1500,-0.04374863,-0.16124176,0.0051511,70.1230052144602
9.318,1500,-0.06174863,-0.21324176,0.0131511,70.1230052144602
9.328,1500,-0.04674863,-0.27424176,0.0251511,70.1230052144602
9.338,1500,-0.10274863,-0.34424176,0.0131511,70.1230052144602
9.348,1500,-0.07974863,-0.34924176,0.0131511,70.1230052144602
9.357,1500,-0.08174863,-0.37624176,0.0371511,70.1230052144602
9.367,1500,-0.03574863,-0.35524176,0.0431511,70.1230052144602
9.377,1500,0.04025137,-0.28924176,-0.0348489,70.1230052144602
9.387,1500,-0.04574863,-0.29624176,0.0221511,70.1230052144602
9.397,1500,-0.06474863,-0.19724176,-0.0038489,70.1230052144602
9.407,1500,-0.00474863,-0.10324176,0.0221511,70.1230052144602
9.417,1500,-0.04474863,-0.08524176,-0.0238489,70.1230052144602
9.428,1500,-0.02574863,0.01975824,0.0761511,70.1230052144602
9.437,1500,-0.09774863,-0.08224176,-0.0138489,70.1230052144602
9.447,1500,-0.11574863,-0.10624176,-0.1458489,70.1230052144602
9.457,1500,-0.01974863,-0.01524176,0.0081511,70.1230052144602
9.468,1500,-0.04674863,-0.04724176,-0.0068489,70.1230052144602
9.478,1500,0.01025137,0.01175824,0.0071511,70.1230052144602
9.488,1500,-0.04674863,0.04875824,-0.0488489,70.1230052144602
9.498,1500,0.00425137,-0.01324176,-0.0058489,70.1230052144602
9.508,1500,0.10625137,-0.03824176,-0.0138489,70.1230052144602
9.518,1500,-0.11474863,-0.05324176,0.0171511,70.1230052144602
9.527,1500,0.05525137,0.02275824,0.0391511,70.1230052144602
9.537,1500,-0.06074863,0.04675824,-0.0038489,70.1230052144602
9.547,1500,0.16825137,0.16075824,-0.0358489,70.1230052144602
9.557,1500,-0.01474863,0.04475824,-0.0478489,70.1230052144602
9.567,1500,0.04525137,-0.01424176,0.0331511,70.1230052144602
9.577,1500,0.01125137,-0.07324176,0.0021511,70.1230052144602
9.588,1500,-0.07574863,-0.01324176,-0.0248489,70.1230052144602
9.598,1500,0.03825137,0.10175824,-0.0478489,70.1230052144602
9.608,1500,0.10325137,0.22075824,-0.0678489,70.1230052144602
9.618,1500,0.11225137,0.29975824,-0.0308489,70.1230052144602
9.628,1500,0.05225137,0.26775824,-0.0178489,70.1230052144602
9.637,1500,0.18825137,0.17775824,-0.0648489,70.1230052144602
9.647,1500,0.14625137,0.22375824,0.0221511,70.1230052144602
9.657,1500,0.12425137,0.24475824,-0.0028489,70.1230052144602
9.667,1500,0.22325137,0.26875824,-0.0468489,70.1230052144602
9.678,1500,0.19725137,0.27975824,-0.0198489,70.1230052144602
9.688,1500,0.14825137,0.22575824,-0.0158489,70.1230052144602
9.698,1500,0.12825137,0.18275824,0.0161511,70.1230052144602
9.707,1500,0.07625137,0.11375824,0.0061511,70.1230052144602
9.717,1500,0.05625137,0.05775824,-0.0118489,70.1230052144602
9.727,1500,0.03925137,0.01575824,-0.0228489,70.1230052144602
9.737,1500,0.04425137,0.03075824,-0.0198489,70.1230052144602
9.747,1500,0.02825137,0.04375824,-0.0008489,70.1230052144602
9.757,1500,0.00725137,0.02675824,0.0181511,70.1230052144602
9.767,1500,-0.02274863,-0.02224176,0.0141511,204.928710763447
9.777,1500,-0.05674863,-0.08324176,0.0021511,204.928710763447
9.787,1500,-0.06874863,-0.16924176,0.0041511,204.928710763447
9.797,1500,-0.00774863,-0.23124176,0.0261511,204.928710763447
9.808,1500,-0.05174863,-0.27924176,0.0061511,204.928710763447
9.818,1500,-0.07574863,-0.28424176,0.0261511,204.928710763447
9.828,1500,-0.11874863,-0.31924176,0.0151511,204.928710763447
9.837,1500,-0.12674863,-0.31024176,0.0371511,204.928710763447
9.847,1500,-0.20774863,-0.31324176,-0.0038489,204.928710763447
9.857,1500,-0.00174863,-0.20224176,0.1391511,204.928710763447
9.867,1500,-0.05974863,-0.28224176,-0.0748489,204.928710763447
9.877,1500,-0.13974863,-0.23024176,-0.0558489,204.928710763447
9.887,1500,-0.17374863,-0.22024176,-0.1388489,204.928710763447
9.898,1500,-0.12774863,-0.08324176,0.1491511,204.928710763447
9.908,1500,0.01925137,0.02875824,0.1921511,204.928710763447
9.917,1500,-0.19674863,-0.08124176,-0.1138489,204.928710763447
9.927,1500,0.06925137,0.07575824,0.1501511,204.928710763447
9.938,1500,-0.02074863,-0.06524176,-0.0828489,204.928710763447
9.947,1500,-0.27274863,-0.14824176,-0.0178489,204.928710763447
9.957,1500,-0.07774863,-0.00924176,0.0901511,204.928710763447
9.967,1500,-0.07574863,-0.01124176,0.0481511,204.928710763447
9.977,1500,0.07125137,0.06375824,0.0431511,204.928710763447
9.987,1500,-0.01574863,0.11175824,-0.0068489,204.928710763447
9.997,1500,0.06425137,0.03175824,-0.0768489,204.928710763447
10.007,1500,-0.06174863,-0.10324176,-0.0108489,204.928710763447
10.017,1500,-0.05574863,-0.07024176,0.0451511,204.928710763447
10.028,1500,0.09025137,0.01475824,0.1441511,204.928710763447
10.038,1500,0.01525137,0.00775824,0.0371511,204.928710763447
10.048,1500,0.11925137,0.17275824,0.0801511,204.928710763447
10.058,1500,0.26025137,0.19975824,-0.0388489,204.928710763447
10.068,1500,-0.13074863,-0.03424176,-0.1028489,204.928710763447
10.078,1500,-0.05374863,-0.07724176,-0.0668489,204.928710763447
10.088,1500,-0.06074863,-0.00124176,-0.0718489,204.928710763447
10.098,1500,0.07625137,0.15075824,-0.0748489,204.928710763447
10.108,1500,0.23625137,0.27875824,-0.0028489,204.928710763447
10.118,1500,0.19125137,0.32675824,-0.0598489,204.928710763447
10.128,1500,0.26525137,0.33275824,-0.0038489,204.928710763447
10.138,1500,0.20525137,0.29775824,0.0501511,204.928710763447
10.148,1500,0.22125137,0.23575824,-0.0548489,204.928710763447
10.158,1500,0.25525137,0.24775824,-0.0308489,204.928710763447
10.168,1500,0.16025137,0.21175824,0.0421511,204.928710763447
10.178,1500,0.14425137,0.18575824,-0.0058489,204.928710763447
10.188,1500,0.15725137,0.23275824,-0.0188489,204.928710763447
10.198,1500,0.12025137,0.16775824,-0.0328489,204.928710763447
10.207,1500,0.08825137,0.10475824,-0.0038489,204.928710763447
10.217,1500,0.06525137,0.04075824,-0.0028489,204.928710763447
10.227,1500,0.00925137,-0.01124176,-0.0228489,204.928710763447
10.238,1500,-0.01974863,-0.02924176,-0.0008489,204.928710763447
10.248,1500,-0.00074863,-0.06524176,0.0141511,204.928710763447
10.258,1500,-0.01874863,-0.10824176,0.0291511,204.928710763447
10.268,1500,-0.06074863,-0.16724176,0.0291511,204.928710763447
10.278,1500,-0.13674863,-0.26724176,-0.0018489,229.972789740371
10.288,1500,-0.11274863,-0.30724176,0.0041511,229.972789740371
10.298,1500,-0.10774863,-0.39124176,0.0041511,229.972789740371
10.307,1500,-0.08674863,-0.38024176,0.0191511,229.972789740371
10.317,1500,-0.08774863,-0.33124176,0.0991511,229.972789740371
10.327,1500,-0.20974863,-0.31724176,0.0201511,229.972789740371
10.338,1500,-0.33674863,-0.30324176,-0.1088489,229.972789740371
10.348,1500,0.14625137,-0.13724176,0.0251511,229.972789740371
10.358,1500,-0.35874863,-0.29824176,-0.2358489,229.972789740371
10.368,1500,0.13825137,-0.23724176,-0.0238489,229.972789740371
10.378,1500,0.23425137,-0.11524176,0.0551511,229.972789740371
10.388,1500,-0.06874863,-0.05924176,0.0861511,229.972789740371
10.398,1500,-0.09974863,-0.01924176,0.0131511,229.972789740371
10.408,1500,0.08425137,0.01075824,0.0981511,229.972789740371
10.417,1500,0.05925137,-0.01424176,0.0681511,229.972789740371
10.428,1500,-0.01874863,0.02775824,0.1201511,229.972789740371
10.438,1500,0.19925137,0.05175824,0.1891511,229.972789740371
10.447,1500,0.19925137,-0.08824176,0.0661511,229.972789740371
10.458,1500,0.16625137,0.09075824,0.1871511,229.972789740371
10.467,1500,0.10525137,0.22875824,0.1481511,229.972789740371
10.477,1500,0.36025137,0.09375824,0.1781511,229.972789740371
10.488,1500,0.07625137,0.01775824,0.2161511,229.972789740371
10.497,1500,-0.42274863,-0.04324176,-0.1328489,229.972789740371
10.508,1500,-0.50174863,-0.19124176,-0.1178489,229.972789740371
10.518,1500,-0.46974863,-0.07824176,-0.3158489,229.972789740371
10.527,1500,-0.48074863,0.03675824,-0.3968489,229.972789740371
10.538,1500,-0.20174863,0.21275824,-0.3998489,229.972789740371
10.548,1500,0.53225137,0.36475824,-0.1578489,229.972789740371
10.557,1500,0.02525137,0.11675824,-0.2378489,229.972789740371
10.568,1500,0.00525137,0.28375824,-0.0138489,229.972789740371
10.578,1500,0.22325137,0.35375824,0.0011511,229.972789740371
10.587,1500,0.37125137,0.36575824,0.0011511,229.972789740371
10.598,1500,0.18425137,0.26275824,-0.0228489,229.972789740371
10.608,1500,0.22625137,0.30875824,0.0121511,229.972789740371
10.618,1500,0.15525137,0.28975824,-0.1228489,229.972789740371
10.628,1500,0.19125137,0.27175824,-0.0438489,229.972789740371
10.638,1500,0.17925137,0.20275824,-0.0388489,229.972789740371
10.648,1500,0.12525137,0.11775824,-0.0138489,229.972789740371
10.658,1500,0.08225137,0.08875824,0.0031511,229.972789740371
10.668,1500,-0.05674863,0.00975824,0.0151511,229.972789740371
10.678,1500,-0.11674863,-0.01024176,-0.0168489,229.972789740371
10.688,1500,0.07825137,0.08775824,-0.0188489,229.972789740371
10.698,1500,0.04625137,0.08575824,-0.0108489,229.972789740371
10.708,1500,0.04525137,0.02875824,0.0071511,229.972789740371
10.718,1500,0.04525137,-0.01224176,0.0001511,229.972789740371
10.728,1500,0.02925137,0.05575824,-0.0318489,229.972789740371
10.738,1500,0.17225137,0.19375824,-0.0858489,229.972789740371
10.748,1500,0.12025137,0.22975824,-0.0218489,229.972789740371
10.758,1500,0.18225137,0.24675824,-0.0128489,229.972789740371
10.768,1500,0.28825137,0.34875824,-0.0148489,229.972789740371
10.778,1500,0.23325137,0.33275824,-0.1068489,229.972789740371
10.788,1500,0.18825137,0.30575824,-0.0428489,229.972789740371
10.798,1500,0.41825137,0.37975824,0.0201511,229.972789740371
10.808,1500,0.29525137,0.31275824,-0.0688489,101.282442093919
10.818,1500,0.16725137,0.29375824,-0.1588489,101.282442093919
10.828,1500,0.21725137,0.26575824,-0.0598489,101.282442093919
10.838,1500,-0.08774863,0.11375824,-0.0048489,101.282442093919
10.848,1500,-0.05174863,0.15275824,-0.0738489,101.282442093919
10.858,1500,-0.09774863,0.06275824,-0.2068489,101.282442093919
10.868,1500,0.04325137,0.07375824,0.1091511,101.282442093919
10.878,1500,0.07925137,0.07275824,0.1621511,101.282442093919
10.888,1500,-0.00974863,0.21075824,0.0581511,101.282442093919
10.899,1500,-0.12374863,0.07275824,-0.1248489,101.282442093919
10.909,1500,0.01925137,-0.09024176,0.0361511,101.282442093919
10.918,1500,-0.11474863,-0.04524176,0.0931511,101.282442093919
10.928,1500,-0.05674863,0.06975824,0.1071511,101.282442093919
10.938,1500,0.14225137,0.00475824,0.1301511,101.282442093919
10.948,1500,-0.06774863,-0.00424176,0.0091511,101.282442093919
10.958,1500,-0.08074863,0.04875824,-0.1138489,101.282442093919
10.968,1500,-0.18574863,-0.03724176,-0.0898489,101.282442093919
10.978,1500,-0.18274863,-0.12324176,-0.1378489,101.282442093919
10.988,1500,-0.21574863,-0.09824176,-0.0448489,101.282442093919
10.998,1500,-0.21274863,0.02175824,-0.1078489,101.282442093919
11.008,1500,-0.09974863,0.01175824,-0.0328489,101.282442093919
11.018,1500,-0.05774863,-0.12224176,0.0301511,101.282442093919
11.028,1500,-0.15174863,-0.12124176,0.0531511,101.282442093919
11.038,1500,-0.30274863,-0.24224176,-0.0188489,101.282442093919
11.048,1500,-0.14774863,-0.43724176,-0.0178489,101.282442093919
11.058,1500,-0.04974863,-0.33724176,0.0151511,101.282442093919
11.068,1500,-0.16074863,-0.21224176,0.0931511,101.282442093919
11.078,1500,-0.19474863,-0.23824176,-0.0568489,101.282442093919
11.088,1500,-0.05174863,-0.35824176,-0.0438489,101.282442093919
11.098,1500,-0.10174863,-0.45524176,0.0161511,101.282442093919
11.108,1500,-0.10974863,-0.34624176,0.0741511,101.282442093919
11.118,1500,-0.07274863,-0.25424176,0.0091511,101.282442093919
11.128,1500,-0.03874863,-0.16324176,0.0091511,101.282442093919
11.138,1500,-0.00974863,-0.12624176,0.0121511,101.282442093919
11.148,1500,0.00925137,-0.07124176,0.0201511,101.282442093919
11.158,1500,-0.06074863,-0.08724176,0.0221511,101.282442093919
11.168,1500,-0.05374863,-0.09624176,0.0051511,101.282442093919
11.178,1500,0.01225137,-0.06124176,-0.0078489,101.282442093919
11.188,1500,0.02125137,-0.00924176,-0.0008489,101.282442093919
11.198,1500,0.05525137,0.06475824,-0.0018489,101.282442093919
11.208,1500,0.07625137,0.09175824,-0.0058489,101.282442093919
11.219,1500,0.07625137,0.12775824,-0.0068489,101.282442093919
11.229,1500,0.09425137,0.16175824,-0.0008489,101.282442093919
11.239,1500,0.14925137,0.21275824,-0.0078489,101.282442093919
11.248,1500,0.18525137,0.26375824,-0.0268489,101.282442093919
11.258,1500,0.19125137,0.29675824,-0.0368489,101.282442093919
11.268,1500,0.19425137,0.30175824,-0.0378489,101.282442093919
11.278,1500,0.16425137,0.29775824,-0.0228489,101.282442093919
11.288,1500,0.18625137,0.27575824,0.0001511,101.282442093919
11.298,1500,0.21425137,0.23975824,0.0091511,101.282442093919
11.308,1500,0.14925137,0.22175824,0.1191511,101.282442093919
11.318,1500,-0.08674863,0.10875824,0.0251511,101.282442093919
11.328,1500,0.07625137,0.11675824,0.0451511,235.856643941788
11.338,1500,0.23825137,0.14875824,0.0371511,235.856643941788
11.348,1500,-0.03874863,-0.01224176,-0.0798489,235.856643941788
11.359,1500,-0.13374863,-0.04924176,-0.0398489,235.856643941788
11.368,1500,-0.03374863,0.04575824,0.0361511,235.856643941788
11.378,1500,-0.04974863,0.03675824,-0.0998489,235.856643941788
11.388,1500,-0.01074863,0.06375824,-0.0078489,235.856643941788
11.397,1500,0.05925137,0.01475824,-0.0648489,235.856643941788
11.408,1500,0.08625137,-0.00224176,-0.0608489,235.856643941788
11.418,1500,-0.01574863,-0.08124176,-0.0358489,235.856643941788
11.428,1500,0.00025137,-0.01624176,0.0191511,235.856643941788
11.438,1500,-0.01474863,0.06675824,-0.0268489,235.856643941788
11.448,1500,0.03825137,0.13275824,0.0721511,235.856643941788
11.458,1500,0.04625137,0.06075824,0.0231511,235.856643941788
11.468,1500,-0.00574863,0.01275824,-0.0078489,235.856643941788
11.478,1500,-0.03974863,-0.07124176,0.0741511,235.856643941788
11.488,1500,-0.13074863,-0.09724176,0.0031511,235.856643941788
11.498,1500,0.01225137,0.04275824,0.0481511,235.856643941788
11.508,1500,-0.02874863,0.03875824,0.0431511,235.856643941788
11.518,1500,-0.01674863,-0.00924176,0.0071511,235.856643941788
11.528,1500,-0.03474863,-0.17024176,-0.0518489,235.856643941788
11.538,1500,-0.02474863,-0.35924176,-0.0118489,235.856643941788
11.548,1500,-0.17074863,-0.38924176,-0.0128489,235.856643941788
11.559,1500,-0.10774863,-0.27424176,0.0421511,235.856643941788
11.569,1500,-0.18274863,-0.25024176,-0.0198489,235.856643941788
11.579,1500,-0.13374863,-0.28124176,-0.0458489,235.856643941788
11.589,1500,-0.09774863,-0.26124176,0.0331511,235.856643941788
11.598,1500,-0.14974863,-0.34024176,0.0241511,235.856643941788
11.608,1500,-0.08174863,-0.26024176,0.0241511,235.856643941788
11.618,1500,-0.03574863,-0.19424176,0.0411511,235.856643941788
11.628,1500,-0.12974863,-0.14524176,-0.0348489,235.856643941788
11.638,1500,-0.01174863,-0.06624176,-0.0188489,235.856643941788
11.648,1500,-0.03074863,-0.05024176,-0.0028489,235.856643941788
11.659,1500,-0.04074863,-0.05624176,0.0131511,235.856643941788
11.668,1500,0.01725137,-0.02224176,0.0161511,235.856643941788
11.678,1500,0.02525137,0.02075824,-0.0088489,235.856643941788
11.688,1500,0.03825137,0.07275824,-0.0158489,235.856643941788
11.698,1500,0.08525137,0.10775824,-0.0108489,235.856643941788
11.708,1500,0.14625137,0.16575824,-0.0038489,235.856643941788
11.719,1500,0.12925137,0.21475824,0.0051511,235.856643941788
11.729,1500,0.17425137,0.24375824,0.0041511,235.856643941788
11.739,1500,0.12425137,0.27175824,-0.0008489,235.856643941788
11.748,1500,0.12425137,0.27775824,-0.0218489,235.856643941788
11.758,1500,0.23025137,0.22175824,-0.0718489,235.856643941788
11.768,1500,0.09125137,0.18875824,0.0131511,235.856643941788
11.778,1500,0.25025137,0.13075824,-0.0108489,235.856643941788
11.788,1500,0.14525137,0.18775824,0.0441511,235.856643941788
11.799,1500,-0.09674863,0.16675824,0.0211511,235.856643941788
11.808,1500,-0.01574863,0.13475824,-0.0568489,235.856643941788
11.818,1500,0.09125137,0.06775824,-0.0438489,235.856643941788
11.828,1500,-0.22774863,-0.01824176,-0.1748489,235.856643941788
11.838,1500,-0.03074863,-0.01024176,-0.0478489,235.856643941788
11.848,1500,-0.19274863,-0.02824176,0.0811511,224.646391106886
11.859,1500,0.27325137,0.04475824,0.0551511,224.646391106886
11.869,1500,0.10825137,0.14275824,0.0391511,224.646391106886
11.879,1500,-0.20774863,0.02975824,-0.1178489,224.646391106886
11.889,1500,-0.24474863,0.05475824,-0.0068489,224.646391106886
11.898,1500,-0.04074863,0.01675824,0.0111511,224.646391106886
11.908,1500,-0.01174863,-0.08124176,0.0161511,224.646391106886
11.918,1500,-0.01574863,-0.10124176,-0.1618489,224.646391106886
11.928,1500,-0.01574863,0.03175824,-0.1198489,224.646391106886
11.938,1500,-0.00774863,0.13875824,0.1091511,224.646391106886
11.948,1500,0.07825137,0.11775824,0.0561511,224.646391106886
11.958,1500,0.04525137,0.05675824,0.0201511,224.646391106886
11.969,1500,-0.05674863,-0.01824176,-0.0048489,224.646391106886
11.979,1500,-0.14174863,-0.20124176,-0.0388489,224.646391106886
11.989,1500,-0.07174863,-0.17324176,-0.0058489,224.646391106886
11.999,1500,-0.04374863,-0.16224176,-0.0328489,224.646391106886
12.008,1500,0.03325137,-0.14324176,0.0501511,224.646391106886
12.018,1500,-0.00574863,-0.23724176,0.0131511,224.646391106886
12.028,1500,0.09625137,-0.32924176,0.0441511,224.646391106886
12.038,1500,-0.13274863,-0.42624176,0.1071511,224.646391106886
12.048,1500,-0.09474863,-0.37824176,0.0701511,224.646391106886
12.058,1500,-0.03974863,-0.28824176,0.0051511,224.646391106886
12.069,1500,-0.07074863,-0.23824176,0.0151511,224.646391106886
12.079,1500,-0.06074863,-0.15224176,0.0021511,224.646391106886
12.089,1500,-0.05874863,-0.15824176,0.0251511,224.646391106886
12.099,1500,-0.02674863,-0.13624176,0.0351511,224.646391106886
12.109,1500,-0.03474863,-0.06524176,0.0191511,224.646391106886
12.118,1500,-0.03274863,-0.06924176,0.0071511,224.646391106886
12.128,1500,0.01025137,-0.05024176,-0.0178489,224.646391106886
12.138,1500,-0.00074863,-0.02824176,-0.0248489,224.646391106886
12.148,1500,-0.01374863,-0.02324176,0.0071511,224.646391106886
12.159,1500,-0.00374863,0.00975824,0.0221511,224.646391106886
12.169,1500,0.01925137,0.02175824,0.0101511,224.646391106886
12.179,1500,0.02425137,0.03175824,-0.0028489,224.646391106886
12.189,1500,0.02325137,0.04175824,-0.0118489,224.646391106886
12.199,1500,0.04825137,0.02475824,-0.0008489,224.646391106886
12.208,1500,0.05625137,0.01975824,0.0101511,224.646391106886
12.218,1500,0.05125137,0.09175824,0.1061511,224.646391106886
12.228,1500,0.01725137,0.05875824,-0.0268489,224.646391106886
12.238,1500,-0.03374863,0.04875824,-0.0268489,224.646391106886
12.248,1500,0.10925137,0.09375824,0.0321511,224.646391106886
12.259,1500,-0.04174863,0.01175824,-0.1378489,224.646391106886
12.269,1500,0.04525137,-0.01924176,-0.1318489,224.646391106886
12.279,1500,-0.32974863,-0.03024176,-0.0328489,224.646391106886
12.289,1500,-0.22074863,-0.02724176,-0.0828489,224.646391106886
12.299,1500,-0.35074863,-0.06524176,-0.1988489,224.646391106886
12.309,1500,-0.61274863,-0.08624176,-0.2758489,224.646391106886
12.318,1500,-0.29474863,-0.00024176,0.1111511,224.646391106886
12.328,1500,0.12925137,-0.04324176,-0.0558489,224.646391106886
12.338,1500,-0.21174863,-0.00524176,-0.0028489,224.646391106886
12.348,1500,0.03225137,-0.00324176,0.0851511,224.646391106886
12.359,1500,0.38425137,0.17875824,0.1151511,224.646391106886
12.369,1500,-0.44274863,-0.09924176,-0.1358489,116.505482245918
12.379,1500,0.04025137,0.00875824,0.0271511,116.505482245918
12.389,1500,0.01725137,0.01375824,0.0471511,116.505482245918
12.399,1500,0.01625137,-0.02824176,0.0651511,116.505482245918
12.409,1500,-0.06574863,0.04875824,0.0371511,116.505482245918
12.419,1500,-0.10374863,-0.04324176,-0.0118489,116.505482245918
12.429,1500,-0.07974863,-0.05824176,-0.1468489,116.505482245918
12.438,1500,0.20625137,0.01575824,0.1471511,116.505482245918
12.448,1500,0.22025137,-0.02924176,-0.1178489,116.505482245918
12.458,1500,-0.02774863,-0.00224176,-0.0568489,116.505482245918
12.469,1500,0.05825137,0.02075824,0.0441511,116.505482245918
12.479,1500,-0.03074863,-0.07624176,-0.0528489,116.505482245918
12.488,1500,0.09125137,-0.07124176,-0.0138489,116.505482245918
12.498,1500,0.07925137,0.09775824,0.1611511,116.505482245918
12.508,1500,-0.22674863,-0.07124176,-0.0018489,116.505482245918
12.518,1500,-0.02074863,-0.08424176,-0.1498489,116.505482245918
12.529,1500,-0.18274863,0.09375824,0.2371511,116.505482245918
12.539,1500,0.47725137,-0.07924176,-0.1948489,116.505482245918
12.549,1500,0.19125137,0.05475824,0.0881511,116.505482245918
12.559,1500,-0.10274863,0.04475824,0.1081511,116.505482245918
12.569,1500,-0.21174863,-0.07824176,-0.1568489,116.505482245918
12.579,1500,0.15225137,0.03875824,0.1521511,116.505482245918
12.588,1500,-0.05774863,-0.00124176,-0.1268489,116.505482245918
12.598,1500,-0.01874863,0.01675824,0.1041511,116.505482245918
12.608,1500,0.05225137,-0.09124176,-0.0378489,116.505482245918
12.619,1500,0.06825137,0.09775824,0.1541511,116.505482245918
12.629,1500,0.28725137,-0.07024176,-0.1018489,116.505482245918
12.639,1500,0.04325137,-0.02724176,-0.0178489,116.505482245918
12.649,1500,-0.06474863,0.05175824,0.0511511,116.505482245918
12.659,1500,-0.25074863,-0.20824176,-0.2428489,116.505482245918
12.669,1500,0.26825137,0.09975824,0.1561511,116.505482245918
12.678,1500,0.23425137,-0.05824176,-0.0958489,116.505482245918
12.688,1500,-0.26274863,-0.08524176,-0.0038489,116.505482245918
12.698,1500,0.15625137,0.04775824,0.0071511,116.505482245918
12.709,1500,-0.01374863,-0.08924176,-0.0708489,116.505482245918
12.719,1500,0.26025137,0.02775824,0.0321511,116.505482245918
12.729,1500,-0.25174863,-0.06924176,-0.0488489,116.505482245918
12.739,1500,-0.06074863,-0.02824176,0.0971511,116.505482245918
12.749,1500,-0.12874863,-0.00124176,-0.0538489,116.505482245918
12.758,1500,0.03125137,-0.01024176,0.0781511,116.505482245918
12.768,1500,0.22125137,-0.02824176,-0.0998489,116.505482245918
12.778,1500,-0.33674863,-0.10524176,-0.1288489,116.505482245918
12.789,1500,0.31025137,0.09975824,0.2511511,116.505482245918
12.799,1500,-0.28974863,-0.04324176,-0.0138489,116.505482245918
12.809,1500,0.18925137,-0.02824176,0.0491511,116.505482245918
12.819,1500,-0.20974863,0.02375824,0.0631511,116.505482245918
12.829,1500,-0.22474863,-0.03224176,-0.0208489,116.505482245918
12.839,1500,0.22425137,-0.03424176,-0.0528489,116.505482245918
12.849,1500,-0.17674863,-0.02724176,0.0511511,116.505482245918
12.858,1500,0.33225137,0.05975824,-0.0558489,116.505482245918
12.868,1500,-0.32774863,-0.15224176,-0.1208489,116.505482245918
12.879,1500,0.08125137,0.06275824,0.0111511,116.505482245918
12.889,1500,-0.12274863,-0.04924176,-0.0128489,114.121887439035
12.899,1500,0.13825137,0.00075824,0.1341511,114.121887439035
12.909,1500,-0.15674863,0.06275824,0.0691511,114.121887439035
12.919,1500,-0.00474863,-0.05024176,0.0901511,114.121887439035
12.929,1500,0.00425137,-0.02424176,-0.0668489,114.121887439035
12.939,1500,0.00825137,0.01175824,0.0861511,114.121887439035
12.949,1500,0.32525137,-0.00424176,-0.0258489,114.121887439035
12.958,1500,-0.12274863,-0.00924176,0.0361511,114.121887439035
12.968,1500,-0.00674863,-0.06024176,0.0461511,114.121887439035
12.979,1500,0.03125137,0.04675824,0.0771511,114.121887439035
12.989,1500,0.07525137,-0.16124176,-0.2228489,114.121887439035
12.999,1500,0.24725137,0.25275824,0.2331511,114.121887439035
13.009,1500,-0.35674863,-0.10724176,-0.0818489,114.121887439035
13.019,1500,-0.03474863,-0.10924176,-0.1048489,114.121887439035
13.029,1500,-0.28574863,-0.00324176,0.0941511,114.121887439035
13.039,1500,0.05625137,-0.11724176,-0.0928489,114.121887439035
13.048,1500,-0.03874863,-0.14324176,-0.2058489,114.121887439035
13.058,1500,0.60625137,0.13675824,0.2651511,114.121887439035
13.069,1500,0.44725137,0.03875824,0.0601511,114.121887439035
13.079,1500,0.38625137,-0.11924176,-0.0828489,114.121887439035
13.089,1500,-0.10974863,-0.08524176,0.0901511,114.121887439035
13.099,1500,-0.12674863,-0.22324176,-0.1948489,114.121887439035
13.109,1500,-0.13274863,-0.07724176,0.0361511,114.121887439035
13.119,1500,0.05625137,-0.08224176,0.0441511,114.121887439035
13.129,1500,-0.03974863,-0.06224176,0.1031511,114.121887439035
13.138,1500,0.06225137,-0.07724176,0.0291511,114.121887439035
13.148,1500,-0.04474863,-0.06924176,0.0801511,114.121887439035
13.159,1500,-0.05074863,-0.08924176,-0.0018489,114.121887439035
13.169,1500,-0.00874863,-0.05524176,-0.0198489,114.121887439035
13.179,1500,-0.02874863,-0.06224176,0.0011511,114.121887439035
13.189,1500,-0.03674863,-0.03624176,-0.0108489,114.121887439035
13.199,1500,-0.00374863,-0.02624176,-0.0008489,114.121887439035
13.209,1500,0.00025137,-0.03024176,0.0121511,114.121887439035
13.219,1500,0.00325137,-0.01424176,-0.0008489,114.121887439035
13.229,1500,-0.00174863,-0.01924176,-0.0038489,114.121887439035
13.239,1500,-0.00874863,-0.01924176,0.0041511,114.121887439035
13.25,1500,-0.00274863,-0.00624176,0.0071511,114.121887439035
13.259,1500,0.00825137,0.00075824,0.0051511,114.121887439035
13.269,1500,0.02725137,0.02375824,0.0041511,114.121887439035
13.279,1500,0.03725137,0.05475824,0.0051511,114.121887439035
13.289,1500,0.06225137,0.08075824,-0.0138489,114.121887439035
13.299,1500,0.09925137,0.10875824,-0.0018489,114.121887439035
13.309,1500,0.08825137,0.14475824,0.0181511,114.121887439035
13.319,1500,0.04425137,0.14675824,-0.0108489,114.121887439035
13.33,1500,0.12125137,0.18075824,-0.0288489,114.121887439035
13.339,1500,0.20725137,0.17675824,0.0261511,114.121887439035
13.349,1500,0.00725137,0.24075824,0.1801511,114.121887439035
13.359,1500,0.30025137,0.17375824,-0.0538489,114.121887439035
13.369,1500,0.16025137,0.10275824,-0.0398489,114.121887439035
13.379,1500,0.00625137,0.10575824,0.0591511,114.121887439035
13.389,1500,-0.03374863,0.03575824,-0.0028489,114.121887439035
13.399,1500,0.02825137,0.04075824,0.0451511,114.121887439035
13.409,1500,-0.05274863,0.03675824,0.0071511,93.3282231927356
13.418,1500,0.00225137,0.11875824,0.1941511,93.3282231927356
13.429,1500,-0.15874863,0.03875824,0.0831511,93.3282231927356
13.439,1500,-0.04174863,0.10175824,0.2731511,93.3282231927356
13.448,1500,0.00025137,0.13275824,0.2501511,93.3282231927356
13.459,1500,-0.05574863,0.03875824,0.1391511,93.3282231927356
13.469,1500,-0.08974863,-0.01024176,-0.0708489,93.3282231927356
13.478,1500,0.04125137,-0.06624176,-0.2288489,93.3282231927356
13.489,1500,0.05025137,-0.10924176,-0.1758489,93.3282231927356
13.499,1500,0.18425137,-0.06224176,-0.1098489,93.3282231927356
13.508,1500,0.00825137,0.04675824,0.1781511,93.3282231927356
13.519,1500,-0.09774863,-0.03524176,-0.1538489,93.3282231927356
13.529,1500,-0.26474863,-0.14324176,-0.2268489,93.3282231927356
13.539,1500,-0.17574863,-0.03824176,0.2221511,93.3282231927356
13.549,1500,0.00025137,0.12775824,0.3781511,93.3282231927356
13.558,1500,0.27425137,0.20175824,0.4041511,93.3282231927356
13.569,1500,0.03025137,0.00375824,-0.0318489,93.3282231927356
13.579,1500,-0.10774863,-0.03424176,-0.3548489,93.3282231927356
13.588,1500,-0.12774863,-0.03724176,-0.3338489,93.3282231927356
13.599,1500,0.00025137,-0.02524176,-0.1168489,93.3282231927356
13.609,1500,-0.07874863,-0.00024176,0.0931511,93.3282231927356
13.618,1500,-0.04974863,-0.05724176,-0.0138489,93.3282231927356
13.629,1500,0.05525137,-0.04424176,-0.0798489,93.3282231927356
13.639,1500,0.04625137,0.09675824,0.2661511,93.3282231927356
13.648,1500,0.42425137,0.17075824,0.2921511,93.3282231927356
13.659,1500,-0.14774863,-0.00324176,-0.2378489,93.3282231927356
13.669,1500,-0.03874863,-0.03224176,-0.2808489,93.3282231927356
13.679,1500,-0.49574863,-0.33924176,-0.2788489,93.3282231927356
13.689,1500,-0.35874863,-0.19824176,-0.1338489,93.3282231927356
13.699,1500,-0.27874863,-0.07224176,-0.1328489,93.3282231927356
13.709,1500,0.21825137,-0.22624176,-0.1458489,93.3282231927356
13.719,1500,0.03425137,-0.24324176,0.1541511,93.3282231927356
13.728,1500,-0.22274863,-0.29424176,-0.1828489,93.3282231927356
13.739,1500,-0.28774863,-0.26624176,0.0491511,93.3282231927356
13.749,1500,-0.04074863,-0.22424176,0.0731511,93.3282231927356
13.758,1500,-0.12674863,-0.26524176,-0.0438489,93.3282231927356
13.769,1500,-0.05474863,-0.18524176,0.0581511,93.3282231927356
13.779,1500,-0.09574863,-0.16224176,0.0461511,93.3282231927356
13.788,1500,-0.05774863,-0.12224176,0.0041511,93.3282231927356
13.799,1500,-0.02674863,-0.10724176,0.0031511,93.3282231927356
13.809,1500,-0.09074863,-0.06724176,-0.0188489,93.3282231927356
13.819,1500,-0.05874863,-0.02724176,-0.0238489,93.3282231927356
13.829,1500,-0.03374863,-0.04524176,-0.0068489,93.3282231927356
13.839,1500,-0.03474863,-0.05924176,-0.0008489,93.3282231927356
13.849,1500,-0.04674863,-0.04424176,0.0001511,93.3282231927356
13.859,1500,0.01725137,-0.03124176,0.0051511,93.3282231927356
13.869,1500,-0.01774863,-0.12624176,0.0471511,93.3282231927356
13.879,1500,-0.10474863,-0.21624176,-0.0048489,93.3282231927356
13.889,1500,-0.10674863,-0.27024176,0.0091511,93.3282231927356
13.899,1500,-0.18174863,-0.29324176,0.0351511,93.3282231927356
13.909,1500,-0.09074863,-0.26924176,-0.0378489,93.3282231927356
13.919,1500,0.01125137,-0.21624176,0.0451511,93.3282231927356
13.928,1500,-0.09174863,-0.21724176,0.0381511,75.1600087485953
13.939,1500,0.27225137,-0.06624176,0.1321511,75.1600087485953
13.949,1500,-0.15774863,-0.17724176,0.0201511,75.1600087485953
13.958,1500,-0.02374863,-0.15624176,0.0241511,75.1600087485953
13.969,1500,0.10425137,-0.12024176,-0.0918489,75.1600087485953
13.979,1500,-0.10074863,-0.17024176,-0.1868489,75.1600087485953
13.988,1500,-0.09374863,-0.04524176,-0.0728489,75.1600087485953
13.999,1500,-0.20074863,-0.05724176,-0.1098489,75.1600087485953
14.009,1500,0.12725137,-0.06024176,-0.1918489,75.1600087485953
14.018,1500,0.17925137,-0.08924176,-0.1998489,75.1600087485953
14.029,1500,0.06025137,0.03175824,0.0701511,75.1600087485953
14.039,1500,0.02825137,0.00975824,0.0731511,75.1600087485953
14.049,1500,-0.29774863,-0.03024176,-0.0108489,75.1600087485953
14.059,1500,-0.16374863,-0.04024176,-0.0118489,75.1600087485953
14.069,1500,-0.21974863,-0.10224176,-0.0368489,75.1600087485953
14.079,1500,-0.12874863,-0.01024176,-0.0378489,75.1600087485953
14.089,1500,-0.09674863,0.01975824,-0.0198489,75.1600087485953
14.099,1500,0.16825137,0.00275824,0.1411511,75.1600087485953
14.109,1500,-0.04174863,0.01875824,0.0221511,75.1600087485953
14.119,1500,0.08725137,0.01875824,-0.1728489,75.1600087485953
14.129,1500,-0.00274863,-0.08424176,-0.0418489,75.1600087485953
14.139,1500,-0.10374863,-0.05824176,0.0801511,75.1600087485953
14.149,1500,-0.10074863,0.02675824,0.1271511,75.1600087485953
14.16,1500,0.21225137,0.00275824,-0.0088489,75.1600087485953
14.169,1500,0.00425137,-0.04124176,-0.0488489,75.1600087485953
14.179,1500,0.10525137,-0.04624176,-0.1208489,75.1600087485953
14.189,1500,0.15225137,-0.01024176,-0.0888489,75.1600087485953
14.199,1500,-0.09174863,0.00375824,0.0201511,75.1600087485953
14.209,1500,0.13025137,0.05175824,0.1351511,75.1600087485953
14.219,1500,-0.01874863,0.01975824,0.1011511,75.1600087485953
14.229,1500,0.00025137,0.10075824,0.0791511,75.1600087485953
14.239,1500,-0.30674863,-0.08924176,-0.1408489,75.1600087485953
14.249,1500,-0.03074863,0.01375824,-0.0388489,75.1600087485953
14.259,1500,0.06025137,0.08375824,0.0001511,75.1600087485953
14.269,1500,-0.15774863,0.12275824,-0.0158489,75.1600087485953
14.28,1500,0.30425137,0.10575824,-0.0778489,75.1600087485953
14.29,1500,0.17925137,0.14275824,0.0331511,75.1600087485953
14.3,1500,0.06525137,0.18475824,-0.0118489,75.1600087485953
14.309,1500,0.00625137,0.20275824,-0.0548489,75.1600087485953
14.319,1500,0.09225137,0.17975824,0.0191511,75.1600087485953
14.329,1500,0.12425137,0.16275824,-0.0178489,75.1600087485953
14.339,1500,0.10425137,0.12575824,-0.0208489,75.1600087485953
14.349,1500,0.07825137,0.09175824,0.0051511,75.1600087485953
14.359,1500,0.04425137,0.05575824,-0.0068489,75.1600087485953
14.369,1500,0.06225137,0.03475824,0.0031511,75.1600087485953
14.379,1500,0.04125137,0.03275824,0.0041511,75.1600087485953
14.39,1500,0.02025137,0.04275824,0.0031511,75.1600087485953
14.399,1500,0.01525137,0.00875824,0.0021511,75.1600087485953
14.409,1500,0.00425137,0.00075824,-0.0008489,75.1600087485953
14.42,1500,-0.00474863,-0.00324176,0.0001511,75.1600087485953
14.429,1500,-0.00074863,-0.01924176,-0.0028489,75.1600087485953
14.439,1500,-0.00774863,-0.02824176,-0.0008489,135.717980433124
14.449,1500,-0.00574863,-0.04324176,0.0031511,135.717980433124
14.459,1500,-0.01474863,-0.05424176,0.0071511,135.717980433124
14.469,1500,0.04725137,-0.04924176,0.0141511,135.717980433124
14.48,1500,-0.02074863,-0.10024176,-0.0088489,135.717980433124
14.49,1500,0.00225137,-0.08424176,0.0251511,135.717980433124
14.5,1500,-0.05074863,-0.08824176,0.0161511,135.717980433124
14.51,1500,-0.04174863,-0.07724176,0.0541511,135.717980433124
14.519,1500,-0.07374863,-0.10624176,0.0301511,135.717980433124
14.529,1500,-0.02274863,-0.11824176,-0.0308489,135.717980433124
14.54,1500,-0.00974863,-0.09124176,-0.0048489,135.717980433124
14.55,1500,-0.01974863,-0.04324176,0.0691511,135.717980433124
14.56,1500,0.00425137,-0.05924176,0.0111511,135.717980433124
14.57,1500,-0.08674863,-0.08724176,0.0121511,135.717980433124
14.58,1500,-0.00874863,-0.07524176,0.0161511,135.717980433124
14.59,1500,0.01425137,0.04375824,0.2081511,135.717980433124
14.6,1500,0.30125137,0.01175824,0.0551511,135.717980433124
14.609,1500,0.16225137,-0.08624176,-0.1878489,135.717980433124
14.619,1500,-0.07274863,-0.01424176,0.0521511,135.717980433124
14.629,1500,-0.27574863,-0.06924176,-0.0968489,135.717980433124
14.639,1500,0.09425137,0.00875824,0.0041511,135.717980433124
14.649,1500,0.15625137,-0.05024176,-0.1068489,135.717980433124
14.659,1500,-0.05174863,0.01575824,0.1441511,135.717980433124
14.669,1500,0.07425137,-0.03724176,-0.0908489,135.717980433124
14.679,1500,-0.08774863,-0.03224176,-0.0178489,135.717980433124
14.69,1500,0.08625137,-0.04324176,-0.0788489,135.717980433124
14.7,1500,-0.05774863,0.01275824,0.1091511,135.717980433124
14.71,1500,-0.00974863,-0.10024176,-0.1708489,135.717980433124
14.72,1500,-0.23874863,0.00075824,0.0261511,135.717980433124
14.73,1500,0.23325137,0.09275824,0.1031511,135.717980433124
14.74,1500,-0.19074863,-0.20124176,-0.2108489,135.717980433124
14.75,1500,0.31725137,0.12375824,0.1701511,135.717980433124
14.76,1500,0.07725137,-0.02524176,-0.0618489,135.717980433124
14.769,1500,-0.18774863,-0.05024176,0.0721511,135.717980433124
14.779,1500,0.36025137,0.14275824,0.1591511,135.717980433124
14.789,1500,-0.25174863,-0.19924176,-0.2478489,135.717980433124
14.799,1500,0.18325137,-0.00024176,0.1241511,135.717980433124
14.809,1500,-0.13374863,-0.02024176,0.0261511,135.717980433124
14.819,1500,0.14825137,-0.01024176,0.0471511,135.717980433124
14.83,1500,-0.13474863,-0.04524176,-0.0378489,135.717980433124
14.84,1500,-0.11374863,0.00875824,0.0391511,135.717980433124
14.85,1500,-0.13674863,-0.03824176,-0.1128489,135.717980433124
14.861,1500,-0.03374863,-0.01624176,-0.0358489,135.717980433124
14.87,1500,0.14925137,0.00475824,0.0321511,135.717980433124
14.879,1500,-0.03974863,-0.07824176,-0.1428489,135.717980433124
14.889,1500,0.24325137,0.05075824,0.0721511,135.717980433124
14.9,1500,-0.02474863,0.01675824,0.0091511,135.717980433124
14.909,1500,-0.05174863,-0.03924176,-0.0008489,135.717980433124
14.919,1500,0.11925137,-0.00524176,-0.0218489,135.717980433124
14.93,1500,-0.01174863,-0.00024176,0.0811511,135.717980433124
14.94,1500,-0.11074863,-0.06824176,-0.0898489,135.717980433124
14.95,1500,-0.08774863,-0.05724176,-0.0108489,135.717980433124
14.96,1500,0.23525137,0.01775824,-0.0048489,116.627017270302
14.97,1500,-0.14374863,-0.06124176,-0.0558489,116.627017270302
14.98,1500,0.04525137,0.07575824,0.1611511,116.627017270302
14.99,1500,-0.05674863,-0.06624176,-0.1218489,116.627017270302
15,1500,-0.08574863,-0.03724176,0.0711511,116.627017270302
15.01,1500,0.25625137,0.11675824,0.1431511,116.627017270302
15.02,1500,-0.29074863,-0.14424176,-0.1088489,116.627017270302
15.03,1500,0.10325137,-0.02224176,0.0061511,116.627017270302
15.04,1500,0.04825137,0.05375824,0.0101511,116.627017270302
15.05,1500,-0.32274863,-0.10424176,-0.0748489,116.627017270302
15.06,1500,0.11025137,0.04775824,0.0881511,116.627017270302
15.069,1500,-0.02674863,-0.06924176,-0.0588489,116.627017270302
15.079,1500,-0.02174863,-0.03524176,0.0171511,116.627017270302
15.089,1500,-0.11174863,-0.03424176,-0.0118489,116.627017270302
15.099,1500,0.12025137,-0.01024176,-0.0498489,116.627017270302
15.109,1500,-0.17674863,-0.02024176,0.0221511,116.627017270302
15.119,1500,0.11525137,-0.05124176,-0.0718489,116.627017270302
15.13,1500,0.08025137,-0.05324176,-0.0158489,116.627017270302
15.14,1500,0.00125137,0.04975824,0.1551511,116.627017270302
15.15,1500,-0.11174863,-0.10024176,-0.1838489,116.627017270302
15.16,1500,0.05425137,0.03575824,0.0761511,116.627017270302
15.17,1500,0.01625137,-0.09624176,-0.1698489,116.627017270302
15.18,1500,-0.22574863,-0.08224176,-0.0248489,116.627017270302
15.19,1500,0.31725137,0.01875824,0.0541511,116.627017270302
15.199,1500,-0.22874863,0.00075824,0.0311511,116.627017270302
15.209,1500,0.09225137,-0.01524176,-0.0528489,116.627017270302
15.219,1500,-0.02274863,0.02375824,0.0451511,116.627017270302
15.23,1500,0.07925137,-0.01124176,0.0181511,116.627017270302
15.239,1500,0.29625137,-0.02124176,-0.0758489,116.627017270302
15.249,1500,-0.05974863,-0.00824176,0.0751511,116.627017270302
15.259,1500,0.11925137,-0.03624176,-0.0218489,116.627017270302
15.27,1500,-0.11174863,-0.00324176,0.0391511,116.627017270302
15.28,1500,0.10525137,-0.04624176,-0.0028489,116.627017270302
15.29,1500,-0.05074863,-0.04424176,-0.0258489,116.627017270302
15.3,1500,-0.02074863,-0.01724176,0.0171511,116.627017270302
15.31,1500,-0.22274863,0.05275824,0.0211511,116.627017270302
15.32,1500,-0.22274863,-0.03324176,-0.0288489,116.627017270302
15.33,1500,0.12125137,-0.00624176,-0.0998489,116.627017270302
15.339,1500,0.00725137,0.08975824,0.1001511,116.627017270302
15.349,1500,0.21825137,0.02775824,0.0341511,116.627017270302
15.36,1500,-0.27074863,-0.13224176,-0.2588489,116.627017270302
15.37,1500,0.18725137,0.00675824,-0.0948489,116.627017270302
15.38,1500,0.01725137,0.00375824,-0.0258489,116.627017270302
15.391,1500,-0.00474863,-0.01424176,-0.1218489,116.627017270302
15.4,1500,-0.31574863,-0.00524176,-0.0268489,116.627017270302
15.41,1500,-0.02574863,0.04175824,0.0061511,116.627017270302
15.419,1500,-0.00674863,0.01975824,-0.0598489,116.627017270302
15.43,1500,0.03625137,0.04375824,-0.0388489,116.627017270302
15.439,1500,0.02425137,0.02575824,-0.0378489,116.627017270302
15.45,1500,0.00825137,0.03075824,-0.0188489,116.627017270302
15.46,1500,0.01725137,0.04775824,0.0211511,116.627017270302
15.469,1500,0.03525137,0.03075824,-0.0078489,116.627017270302
15.479,1500,0.01425137,0.01975824,0.0021511,116.627017270302
15.489,1500,0.01125137,0.01075824,0.0121511,73.2025429630958
15.499,1500,-0.00374863,0.01375824,-0.0068489,73.2025429630958
15.51,1500,0.01125137,0.01375824,-0.0018489,73.2025429630958
15.52,1500,0.00425137,-0.00224176,-0.0038489,73.2025429630958
15.53,1500,-0.00874863,-0.02324176,0.0001511,73.2025429630958
15.54,1500,-0.02774863,-0.05424176,-0.0008489,73.2025429630958
15.55,1500,-0.03274863,-0.10824176,0.0041511,73.2025429630958
15.56,1500,-0.02074863,-0.16224176,0.0051511,73.2025429630958
15.57,1500,-0.05474863,-0.21224176,0.0051511,73.2025429630958
15.579,1500,-0.06174863,-0.27424176,0.0081511,73.2025429630958
15.589,1500,-0.11074863,-0.34524176,0.0361511,73.2025429630958
15.6,1500,-0.12574863,-0.35424176,0.0151511,73.2025429630958
15.61,1500,-0.14274863,-0.38524176,0.0181511,73.2025429630958
15.62,1500,0.00125137,-0.35124176,0.0211511,73.2025429630958
15.63,1500,0.05325137,-0.29424176,-0.0528489,73.2025429630958
15.64,1500,-0.04374863,-0.29424176,0.0321511,73.2025429630958
15.65,1500,-0.05674863,-0.21524176,0.0001511,73.2025429630958
15.66,1500,0.01625137,-0.07924176,0.0671511,73.2025429630958
15.67,1500,-0.06874863,-0.07524176,-0.0248489,73.2025429630958
15.68,1500,0.01425137,0.03475824,0.1091511,73.2025429630958
15.69,1500,-0.12574863,-0.08824176,-0.0128489,73.2025429630958
15.7,1500,-0.12474863,-0.12324176,-0.1908489,73.2025429630958
15.71,1500,-0.13074863,-0.03224176,0.0311511,73.2025429630958
15.72,1500,-0.03074863,-0.02724176,-0.0208489,73.2025429630958
15.729,1500,-0.02874863,0.02675824,0.0281511,73.2025429630958
15.74,1500,-0.05974863,0.05575824,-0.0218489,73.2025429630958
15.75,1500,-0.03074863,-0.04024176,-0.0078489,73.2025429630958
15.76,1500,-0.01874863,-0.08224176,-0.0608489,73.2025429630958
15.77,1500,-0.09374863,-0.02624176,-0.0208489,73.2025429630958
15.78,1500,0.01925137,0.00675824,-0.0538489,73.2025429630958
15.79,1500,-0.02674863,0.07675824,0.0031511,73.2025429630958
15.8,1500,0.01325137,0.10975824,-0.0968489,73.2025429630958
15.81,1500,0.03925137,0.07375824,-0.0288489,73.2025429630958
15.819,1500,0.00325137,-0.03724176,-0.0428489,73.2025429630958
15.829,1500,0.06725137,-0.06924176,0.0201511,73.2025429630958
15.84,1500,0.02425137,-0.01324176,-0.0538489,73.2025429630958
15.85,1500,0.02125137,0.10475824,-0.0258489,73.2025429630958
15.86,1500,0.11925137,0.22475824,-0.0448489,73.2025429630958
15.87,1500,0.12125137,0.30675824,-0.0268489,73.2025429630958
15.88,1500,0.07425137,0.26675824,-0.0108489,73.2025429630958
15.89,1500,0.20925137,0.22175824,0.0011511,73.2025429630958
15.9,1500,0.13425137,0.21175824,-0.0008489,73.2025429630958
15.91,1500,0.11425137,0.24275824,0.0021511,73.2025429630958
15.92,1500,0.20325137,0.26775824,-0.0418489,73.2025429630958
15.93,1500,0.20025137,0.28075824,-0.0218489,73.2025429630958
15.94,1500,0.14025137,0.21975824,-0.0148489,73.2025429630958
15.95,1500,0.12725137,0.17575824,0.0121511,73.2025429630958
15.96,1500,0.05825137,0.10875824,0.0151511,73.2025429630958
15.97,1500,0.04625137,0.04875824,-0.0098489,73.2025429630958
15.98,1500,0.04425137,0.01475824,-0.0258489,73.2025429630958
15.99,1500,0.04625137,0.01175824,-0.0168489,73.2025429630958
16,1500,0.02325137,0.00375824,-0.0008489,207.356313719451
16.01,1500,-0.01774863,-0.02224176,0.0181511,207.356313719451
16.02,1500,-0.07574863,-0.10024176,0.0091511,207.356313719451
16.03,1500,-0.12174863,-0.21324176,-0.0408489,207.356313719451
16.04,1500,-0.08374863,-0.26324176,0.0131511,207.356313719451
16.05,1500,-0.05774863,-0.31224176,0.0311511,207.356313719451
16.06,1500,-0.02474863,-0.31724176,0.0461511,207.356313719451
16.07,1500,-0.08074863,-0.31924176,0.0201511,207.356313719451
16.08,1500,-0.14874863,-0.30924176,0.0441511,207.356313719451
16.09,1500,-0.06074863,-0.28824176,0.0381511,207.356313719451
16.1,1500,-0.10874863,-0.25124176,0.0411511,207.356313719451
16.11,1500,-0.17774863,-0.25524176,0.0501511,207.356313719451
16.12,1500,-0.15974863,-0.23224176,-0.0528489,207.356313719451
16.13,1500,0.00425137,-0.17524176,0.0011511,207.356313719451
16.14,1500,-0.07174863,-0.04024176,0.1251511,207.356313719451
16.15,1500,-0.22474863,-0.09224176,-0.0808489,207.356313719451
16.16,1500,0.03425137,0.07275824,0.1001511,207.356313719451
16.17,1500,-0.08474863,-0.09324176,-0.1048489,207.356313719451
16.18,1500,-0.13674863,-0.09324176,0.0041511,207.356313719451
16.19,1500,-0.08174863,-0.03124176,0.0771511,207.356313719451
16.2,1500,-0.22274863,-0.06424176,0.0291511,207.356313719451
16.21,1500,-0.00574863,0.05675824,0.0861511,207.356313719451
16.22,1500,0.09925137,0.18075824,0.2191511,207.356313719451
16.23,1500,0.22725137,0.10675824,-0.0618489,207.356313719451
16.24,1500,-0.11474863,-0.04824176,-0.0578489,207.356313719451
16.25,1500,-0.18274863,-0.11824176,-0.0688489,207.356313719451
16.261,1500,0.05625137,-0.04724176,0.0331511,207.356313719451
16.27,1500,-0.04074863,0.02575824,0.1041511,207.356313719451
16.281,1500,0.00925137,0.10775824,0.0631511,207.356313719451
16.291,1500,0.03825137,0.13875824,0.0061511,207.356313719451
16.301,1500,-0.01574863,0.10875824,0.0961511,207.356313719451
16.31,1500,0.03825137,-0.01824176,-0.0378489,207.356313719451
16.32,1500,-0.08474863,-0.05724176,-0.0948489,207.356313719451
16.33,1500,0.06025137,0.13475824,0.0321511,207.356313719451
16.34,1500,0.06725137,0.19775824,-0.0418489,207.356313719451
16.35,1500,0.26625137,0.34675824,0.0531511,207.356313719451
16.36,1500,0.16625137,0.35675824,-0.0098489,207.356313719451
16.37,1500,0.15425137,0.30775824,0.0021511,207.356313719451
16.38,1500,0.08025137,0.25375824,-0.0508489,207.356313719451
16.39,1500,0.23725137,0.28275824,-0.0308489,207.356313719451
16.4,1500,0.11925137,0.16775824,-0.0188489,207.356313719451
16.41,1500,0.11425137,0.17475824,0.0111511,207.356313719451
16.42,1500,0.16525137,0.20675824,-0.0058489,207.356313719451
16.43,1500,0.11125137,0.19175824,-0.0158489,207.356313719451
16.441,1500,0.07225137,0.14375824,-0.0138489,207.356313719451
16.45,1500,0.06625137,0.05975824,0.0121511,207.356313719451
16.46,1500,0.04325137,-0.00124176,0.0031511,207.356313719451
16.47,1500,-0.00874863,-0.01424176,-0.0108489,207.356313719451
16.481,1500,-0.00474863,0.01475824,-0.0128489,207.356313719451
16.49,1500,0.00725137,0.02975824,0.0091511,207.356313719451
16.5,1500,0.00725137,0.03375824,0.0141511,207.356313719451
16.511,1500,-0.00474863,0.01375824,0.0051511,207.356313719451
16.521,1500,-0.00274863,-0.00924176,-0.0068489,207.356313719451
16.531,1500,-0.00374863,-0.02024176,-0.0028489,189.060366464118
16.541,1500,0.00425137,-0.02824176,0.0041511,189.060366464118
16.55,1500,0.01825137,-0.00424176,0.0001511,189.060366464118
16.56,1500,0.00525137,0.00375824,0.0001511,189.060366464118
16.57,1500,0.00125137,-0.04424176,0.0071511,189.060366464118
16.58,1500,-0.01074863,-0.11524176,0.0141511,189.060366464118
16.59,1500,-0.04374863,-0.16724176,0.0151511,189.060366464118
16.6,1500,-0.06274863,-0.23624176,0.0131511,189.060366464118
16.61,1500,-0.07674863,-0.29024176,0.0191511,189.060366464118
16.62,1500,-0.08174863,-0.34324176,-0.0018489,189.060366464118
16.63,1500,-0.13674863,-0.36524176,0.0151511,189.060366464118
16.64,1500,-0.08674863,-0.32124176,0.0111511,189.060366464118
16.65,1500,-0.13474863,-0.37024176,0.0921511,189.060366464118
16.66,1500,-0.21274863,-0.26124176,0.1531511,189.060366464118
16.67,1500,-0.07174863,-0.24524176,0.0511511,189.060366464118
16.68,1500,-0.23274863,-0.32224176,-0.2838489,189.060366464118
16.69,1500,-0.28974863,-0.24924176,-0.0178489,189.060366464118
16.7,1500,-0.01874863,-0.19424176,-0.0888489,189.060366464118
16.71,1500,0.03425137,-0.04724176,0.0341511,189.060366464118
16.719,1500,-0.15274863,-0.01424176,0.1241511,189.060366464118
16.73,1500,-0.12674863,-0.00124176,0.2291511,189.060366464118
16.74,1500,0.06125137,-0.04224176,0.0441511,189.060366464118
16.751,1500,-0.21374863,-0.10824176,-0.0558489,189.060366464118
16.76,1500,-0.23574863,-0.06724176,-0.2628489,189.060366464118
16.77,1500,-0.12874863,-0.19524176,-0.2818489,189.060366464118
16.781,1500,-0.25374863,-0.21924176,-0.3678489,189.060366464118
16.791,1500,-0.14774863,0.07975824,-0.5828489,189.060366464118
16.801,1500,-0.27474863,-0.04824176,-0.7428489,189.060366464118
16.81,1500,-0.25374863,-0.22824176,-0.6188489,189.060366464118
16.82,1500,-0.48374863,-0.18824176,-0.2898489,189.060366464118
16.83,1500,-0.39974863,-0.03324176,0.0231511,189.060366464118
16.84,1500,-0.28874863,-0.04524176,0.1711511,189.060366464118
16.85,1500,-0.41474863,0.03675824,-0.1688489,189.060366464118
16.86,1500,-0.29874863,0.22875824,-0.0958489,189.060366464118
16.871,1500,0.00525137,0.21575824,-0.1678489,189.060366464118
16.88,1500,0.16525137,0.19575824,-0.3078489,189.060366464118
16.891,1500,-0.03574863,0.20075824,0.0401511,189.060366464118
16.9,1500,0.29525137,0.36175824,0.0191511,189.060366464118
16.91,1500,0.14825137,0.33175824,-0.0758489,189.060366464118
16.921,1500,0.21525137,0.26375824,-0.1548489,189.060366464118
16.931,1500,0.30225137,0.30475824,0.0251511,189.060366464118
16.94,1500,0.17625137,0.31375824,0.1541511,189.060366464118
16.951,1500,0.20725137,0.30075824,0.0161511,189.060366464118
16.96,1500,0.15225137,0.25175824,-0.0438489,189.060366464118
16.97,1500,0.17425137,0.15975824,-0.0438489,189.060366464118
16.981,1500,0.10725137,0.09675824,-0.0198489,189.060366464118
16.991,1500,0.04725137,0.05375824,-0.0048489,189.060366464118
17.001,1500,-0.10474863,-0.00324176,0.0001511,189.060366464118
17.01,1500,-0.03574863,0.03875824,0.0001511,189.060366464118
17.02,1500,0.08625137,0.09475824,-0.0108489,189.060366464118
17.03,1500,0.01825137,0.04575824,0.0051511,189.060366464118
17.04,1500,0.06725137,0.01175824,-0.0048489,189.060366464118
17.05,1500,0.01025137,-0.00224176,-0.0278489,197.648292381774
17.061,1500,0.04525137,0.08675824,-0.0288489,197.648292381774
17.071,1500,-0.00174863,0.17375824,0.0251511,197.648292381774
17.081,1500,0.10925137,0.22975824,0.0351511,197.648292381774
17.091,1500,0.19525137,0.27575824,-0.0068489,197.648292381774
17.101,1500,0.28025137,0.34675824,-0.0238489,197.648292381774
17.11,1500,0.18725137,0.29975824,-0.1448489,197.648292381774
17.121,1500,0.18925137,0.31475824,-0.0348489,197.648292381774
17.131,1500,0.43725137,0.41075824,0.0751511,197.648292381774
17.14,1500,0.29025137,0.31075824,-0.0298489,197.648292381774
17.15,1500,0.18225137,0.29875824,-0.0878489,197.648292381774
17.16,1500,0.18925137,0.22975824,-0.0678489,197.648292381774
17.17,1500,-0.00674863,0.14375824,0.0241511,197.648292381774
17.181,1500,-0.12274863,0.12375824,-0.0598489,197.648292381774
17.191,1500,-0.11074863,0.06075824,-0.1748489,197.648292381774
17.201,1500,0.04025137,0.04475824,0.0111511,197.648292381774
17.211,1500,0.09525137,0.06675824,0.0931511,197.648292381774
17.221,1500,-0.12274863,0.17375824,-0.0688489,197.648292381774
17.231,1500,-0.13174863,0.04575824,-0.1628489,197.648292381774
17.241,1500,-0.03974863,-0.09824176,0.0051511,197.648292381774
17.25,1500,-0.20874863,-0.06324176,-0.0158489,197.648292381774
17.26,1500,-0.13574863,0.05775824,-0.0288489,197.648292381774
17.27,1500,0.10325137,0.01375824,0.0761511,197.648292381774
17.28,1500,-0.16074863,-0.02624176,-0.0188489,197.648292381774
17.291,1500,-0.12174863,0.07075824,-0.0258489,197.648292381774
17.301,1500,-0.19574863,-0.01624176,0.0021511,197.648292381774
17.31,1500,-0.26174863,-0.13524176,-0.0778489,197.648292381774
17.321,1500,-0.23074863,-0.10124176,-0.0398489,197.648292381774
17.331,1500,-0.30774863,0.00575824,-0.1048489,197.648292381774
17.34,1500,-0.13974863,0.00275824,-0.0338489,197.648292381774
17.35,1500,-0.04174863,-0.14224176,0.1131511,197.648292381774
17.361,1500,-0.23374863,-0.10524176,0.1221511,197.648292381774
17.371,1500,-0.28374863,-0.17624176,0.0271511,197.648292381774
17.381,1500,-0.13074863,-0.45824176,-0.1138489,197.648292381774
17.39,1500,-0.07374863,-0.35224176,0.0391511,197.648292381774
17.401,1500,-0.23774863,-0.22724176,0.1251511,197.648292381774
17.41,1500,-0.18274863,-0.23424176,0.0031511,197.648292381774
17.42,1500,-0.01974863,-0.33724176,0.0031511,197.648292381774
17.431,1500,-0.10674863,-0.44424176,0.0161511,197.648292381774
17.441,1500,-0.12674863,-0.36124176,0.0231511,197.648292381774
17.451,1500,-0.07974863,-0.23924176,-0.0028489,197.648292381774
17.461,1500,-0.03874863,-0.15824176,0.0041511,197.648292381774
17.47,1500,0.00725137,-0.10924176,0.0231511,197.648292381774
17.48,1500,0.01425137,-0.06724176,0.0191511,197.648292381774
17.49,1500,-0.04074863,-0.09924176,0.0221511,197.648292381774
17.5,1500,-0.03474863,-0.09624176,0.0121511,197.648292381774
17.51,1500,0.01925137,-0.05424176,0.0061511,197.648292381774
17.52,1500,0.02925137,-0.00324176,-0.0018489,197.648292381774
17.531,1500,0.05625137,0.06675824,-0.0078489,197.648292381774
17.54,1500,0.07125137,0.09775824,-0.0038489,197.648292381774
17.55,1500,0.09025137,0.13875824,-0.0038489,197.648292381774
17.56,1500,0.09825137,0.16575824,-0.0018489,233.365394778613
17.571,1500,0.15325137,0.21775824,-0.0138489,233.365394778613
17.581,1500,0.18125137,0.26275824,-0.0348489,233.365394778613
17.591,1500,0.18525137,0.30175824,-0.0248489,233.365394778613
17.601,1500,0.19925137,0.30375824,-0.0208489,233.365394778613
17.611,1500,0.14225137,0.29775824,-0.0098489,233.365394778613
17.621,1500,0.15125137,0.27675824,0.0061511,233.365394778613
17.631,1500,0.15225137,0.24275824,0.0041511,233.365394778613
17.64,1500,0.12025137,0.19675824,0.0371511,233.365394778613
17.65,1500,-0.05474863,0.11275824,-0.0058489,233.365394778613
17.661,1500,0.04525137,0.08075824,-0.0348489,233.365394778613
17.671,1500,0.12225137,0.11675824,-0.0368489,233.365394778613
17.681,1500,0.02225137,0.01675824,-0.0448489,233.365394778613
17.691,1500,-0.05774863,-0.00824176,0.0171511,233.365394778613
17.701,1500,-0.07474863,0.03675824,0.0031511,233.365394778613
17.711,1500,0.06625137,0.06375824,0.0651511,233.365394778613
17.721,1500,-0.07774863,0.06475824,0.0141511,233.365394778613
17.73,1500,-0.04574863,-0.01624176,-0.0898489,233.365394778613
17.74,1500,-0.09874863,-0.07724176,-0.1368489,233.365394778613
17.75,1500,-0.01374863,-0.06324176,-0.0118489,233.365394778613
17.761,1500,0.02225137,-0.01924176,0.0121511,233.365394778613
17.771,1500,-0.01274863,0.04875824,-0.0498489,233.365394778613
17.781,1500,0.11025137,0.12575824,0.0951511,233.365394778613
17.791,1500,0.04825137,0.05375824,0.0561511,233.365394778613
17.801,1500,-0.01074863,0.01075824,-0.0138489,233.365394778613
17.811,1500,-0.03974863,-0.06624176,0.0641511,233.365394778613
17.821,1500,-0.11574863,-0.09024176,0.0031511,233.365394778613
17.83,1500,0.04925137,0.03975824,0.0421511,233.365394778613
17.84,1500,0.00925137,0.05675824,0.0751511,233.365394778613
17.851,1500,0.04325137,0.03775824,0.1091511,233.365394778613
17.861,1500,-0.06074863,-0.20624176,-0.0968489,233.365394778613
17.871,1500,-0.03874863,-0.37024176,-0.0498489,233.365394778613
17.881,1500,-0.19074863,-0.38124176,-0.0068489,233.365394778613
17.891,1500,-0.15274863,-0.28224176,0.0091511,233.365394778613
17.9,1500,-0.18274863,-0.24424176,-0.0218489,233.365394778613
17.91,1500,-0.09874863,-0.27924176,-0.0568489,233.365394778613
17.921,1500,-0.04474863,-0.26724176,0.0301511,233.365394778613
17.931,1500,-0.13374863,-0.34224176,0.0321511,233.365394778613
17.941,1500,-0.05574863,-0.24224176,0.0151511,233.365394778613
17.951,1500,-0.03374863,-0.20324176,0.0211511,233.365394778613
17.961,1500,-0.01674863,-0.12324176,-0.0118489,233.365394778613
17.971,1500,0.01825137,-0.05924176,-0.0248489,233.365394778613
17.981,1500,-0.02874863,-0.04724176,0.0031511,233.365394778613
17.991,1500,-0.04374863,-0.04424176,0.0211511,233.365394778613
18.001,1500,0.00925137,-0.01224176,0.0091511,233.365394778613
18.01,1500,0.01925137,0.04275824,-0.0068489,233.365394778613
18.021,1500,0.05825137,0.08775824,-0.0178489,233.365394778613
18.031,1500,0.20625137,0.15375824,-0.0178489,233.365394778613
18.041,1500,0.15025137,0.18275824,-0.0148489,233.365394778613
18.051,1500,0.18325137,0.24175824,-0.0068489,233.365394778613
18.061,1500,0.13525137,0.26675824,-0.0088489,233.365394778613
18.071,1500,0.10825137,0.28575824,-0.0288489,233.365394778613
18.081,1500,0.08525137,0.24175824,-0.0748489,235.106309993112
18.091,1500,0.16125137,0.27675824,0.0241511,235.106309993112
18.101,1500,0.05425137,0.16875824,-0.0538489,235.106309993112
18.111,1500,0.31525137,0.27475824,0.0961511,235.106309993112
18.12,1500,0.15025137,0.13575824,-0.0448489,235.106309993112
18.131,1500,-0.09874863,0.03975824,-0.1588489,235.106309993112
18.141,1500,0.01925137,0.08075824,-0.1208489,235.106309993112
18.151,1500,-0.24774863,-0.02324176,-0.0688489,235.106309993112
18.161,1500,-0.21074863,0.06675824,-0.0028489,235.106309993112
18.171,1500,-0.18374863,-0.00524176,0.0161511,235.106309993112
18.181,1500,-0.03874863,-0.04824176,0.0861511,235.106309993112
18.191,1500,0.07825137,0.04475824,-0.0058489,235.106309993112
18.201,1500,0.03525137,0.09475824,0.0131511,235.106309993112
18.211,1500,-0.06074863,0.04775824,-0.0168489,235.106309993112
18.221,1500,-0.11274863,0.06375824,-0.0058489,235.106309993112
18.231,1500,-0.00874863,-0.02124176,-0.0728489,235.106309993112
18.241,1500,0.21025137,-0.09824176,0.0071511,235.106309993112
18.25,1500,0.22425137,-0.01624176,0.0011511,235.106309993112
18.261,1500,-0.16374863,0.00675824,-0.0668489,235.106309993112
18.271,1500,-0.09574863,0.09875824,0.0361511,235.106309993112
18.281,1500,0.03425137,0.06675824,0.1331511,235.106309993112
18.291,1500,-0.05374863,-0.03124176,-0.0198489,235.106309993112
18.301,1500,-0.06174863,-0.13324176,-0.0958489,235.106309993112
18.311,1500,-0.02074863,-0.17124176,0.0321511,235.106309993112
18.321,1500,-0.17374863,-0.15924176,-0.0488489,235.106309993112
18.331,1500,-0.00974863,-0.13824176,0.0271511,235.106309993112
18.34,1500,-0.00874863,-0.18824176,-0.0458489,235.106309993112
18.351,1500,0.08825137,-0.25224176,0.0091511,235.106309993112
18.361,1500,-0.07774863,-0.35024176,0.0301511,235.106309993112
18.371,1500,-0.14174863,-0.40924176,0.0601511,235.106309993112
18.381,1500,-0.05574863,-0.38724176,-0.0008489,235.106309993112
18.391,1500,-0.08674863,-0.28024176,-0.0218489,235.106309993112
18.4,1500,-0.10774863,-0.22224176,-0.0008489,235.106309993112
18.411,1500,-0.08774863,-0.15024176,0.0081511,235.106309993112
18.42,1500,-0.08674863,-0.14324176,0.0181511,235.106309993112
18.431,1500,-0.04874863,-0.11524176,0.0251511,235.106309993112
18.441,1500,-0.01774863,-0.07624176,0.0131511,235.106309993112
18.451,1500,0.00025137,-0.07724176,-0.0078489,235.106309993112
18.461,1500,0.00125137,-0.03624176,-0.0258489,235.106309993112
18.471,1500,-0.00074863,-0.01824176,-0.0048489,235.106309993112
18.481,1500,-0.00474863,-0.01324176,0.0131511,235.106309993112
18.49,1500,0.00425137,0.01375824,0.0231511,235.106309993112
18.501,1500,0.02525137,0.03475824,0.0091511,235.106309993112
18.511,1500,0.02925137,0.03875824,-0.0198489,235.106309993112
18.521,1500,0.00025137,0.04475824,-0.0018489,235.106309993112
18.531,1500,0.01725137,0.02375824,-0.0178489,235.106309993112
18.541,1500,0.00925137,0.05875824,0.0611511,235.106309993112
18.551,1500,0.01025137,0.02275824,-0.0078489,235.106309993112
18.561,1500,0.07825137,0.07475824,0.0391511,235.106309993112
18.571,1500,0.03325137,0.12875824,0.0941511,235.106309993112
18.581,1500,-0.14174863,0.02575824,-0.0158489,235.106309993112
18.591,1500,0.17425137,0.07375824,0.0631511,235.106309993112
18.601,1500,0.03925137,-0.00224176,-0.0518489,235.106309993112
18.61,1500,-0.00174863,0.14175824,0.2391511,150.620181070886
18.621,1500,-0.00774863,0.10975824,0.1881511,150.620181070886
18.631,1500,-0.41874863,0.08375824,0.1891511,150.620181070886
18.641,1500,-0.18274863,0.22075824,0.4141511,150.620181070886
18.651,1500,0.00125137,0.06875824,0.2741511,150.620181070886
18.661,1500,0.05625137,-0.04524176,-0.0668489,150.620181070886
18.67,1500,-0.22674863,-0.01224176,-0.0268489,150.620181070886
18.681,1500,0.10525137,0.00875824,0.0541511,150.620181070886
18.691,1500,0.06325137,-0.02724176,-0.0148489,150.620181070886
18.7,1500,-0.00174863,0.02275824,0.0921511,150.620181070886
18.711,1500,0.21525137,0.09875824,0.0541511,150.620181070886
18.721,1500,-0.44774863,-0.17224176,-0.2218489,150.620181070886
18.731,1500,0.25525137,0.05375824,0.0311511,150.620181070886
18.741,1500,-0.50374863,-0.14924176,-0.0788489,150.620181070886
18.75,1500,0.24125137,0.00075824,-0.0138489,150.620181070886
18.761,1500,0.37725137,0.06475824,0.0301511,150.620181070886
18.771,1500,-0.36874863,-0.15224176,-0.1428489,150.620181070886
18.78,1500,0.24625137,0.01375824,-0.0168489,150.620181070886
18.791,1500,-0.13574863,0.01775824,0.1391511,150.620181070886
18.801,1500,-0.22174863,-0.21624176,-0.2468489,150.620181070886
18.811,1500,0.32425137,0.10275824,0.1151511,150.620181070886
18.821,1500,-0.26774863,0.02375824,0.1621511,150.620181070886
18.83,1500,-0.09374863,-0.12724176,-0.2688489,150.620181070886
18.841,1500,0.20425137,0.09675824,0.1871511,150.620181070886
18.851,1500,0.04625137,-0.09924176,-0.1288489,150.620181070886
18.861,1500,-0.16474863,-0.05524176,-0.0478489,150.620181070886
18.871,1500,0.28225137,0.04875824,0.0081511,150.620181070886
18.881,1500,-0.13574863,-0.04224176,-0.0208489,150.620181070886
18.891,1500,0.09425137,0.01675824,-0.0248489,150.620181070886
18.901,1500,-0.12374863,-0.07324176,-0.0628489,150.620181070886
18.911,1500,0.16325137,0.03575824,0.0471511,150.620181070886
18.921,1500,0.02525137,0.01175824,0.0291511,150.620181070886
18.931,1500,0.13225137,-0.00624176,0.0291511,150.620181070886
18.94,1500,0.12425137,-0.02524176,-0.0778489,150.620181070886
18.951,1500,-0.46074863,-0.06224176,-0.0118489,150.620181070886
18.961,1500,0.07525137,-0.00824176,-0.0228489,150.620181070886
18.97,1500,-0.20074863,0.02475824,0.1541511,150.620181070886
18.981,1500,0.01625137,-0.04024176,-0.0388489,150.620181070886
18.991,1500,-0.37474863,-0.10824176,-0.0808489,150.620181070886
19.001,1500,0.33225137,0.06575824,0.1261511,150.620181070886
19.011,1500,-0.06374863,-0.13824176,-0.2538489,150.620181070886
19.021,1500,0.08525137,0.04675824,0.2431511,150.620181070886
19.031,1500,0.19825137,0.01975824,0.0531511,150.620181070886
19.041,1500,-0.26674863,-0.05324176,-0.0138489,150.620181070886
19.05,1500,0.19025137,0.07875824,0.1161511,150.620181070886
19.061,1500,-0.24274863,-0.11624176,-0.1358489,150.620181070886
19.071,1500,0.09425137,0.05275824,0.1561511,150.620181070886
19.081,1500,0.26325137,0.01975824,0.0011511,150.620181070886
19.091,1500,-0.19474863,0.00875824,0.0161511,150.620181070886
19.101,1500,-0.12974863,-0.15924176,-0.2158489,150.620181070886
19.111,1500,0.13825137,0.07975824,0.1661511,150.620181070886
19.121,1500,0.19925137,0.02775824,-0.0548489,150.620181070886
19.132,1500,-0.29374863,-0.09424176,-0.0618489,111.536482660095
19.141,1500,0.23925137,0.05675824,0.0091511,111.536482660095
19.151,1500,-0.14974863,0.01475824,0.0571511,111.536482660095
19.161,1500,0.31725137,-0.06624176,-0.0158489,111.536482660095
19.171,1500,0.11025137,0.07775824,0.0921511,111.536482660095
19.181,1500,-0.35474863,-0.11024176,0.0121511,111.536482660095
19.191,1500,-0.09074863,-0.06624176,-0.0968489,111.536482660095
19.201,1500,-0.17674863,0.04775824,0.2261511,111.536482660095
19.211,1500,0.23425137,-0.05324176,-0.1468489,111.536482660095
19.221,1500,-0.05474863,0.01875824,-0.0608489,111.536482660095
19.231,1500,0.43325137,0.14675824,0.1841511,111.536482660095
19.242,1500,-0.00374863,-0.05724176,-0.1058489,111.536482660095
19.251,1500,0.04725137,-0.02124176,0.0291511,111.536482660095
19.261,1500,0.01525137,0.06075824,0.0711511,111.536482660095
19.271,1500,-0.57474863,-0.08124176,0.0711511,111.536482660095
19.281,1500,0.26025137,0.00275824,-0.0078489,111.536482660095
19.291,1500,-0.15074863,-0.02724176,0.0501511,111.536482660095
19.301,1500,-0.01774863,-0.09424176,-0.1628489,111.536482660095
19.311,1500,-0.06374863,0.03975824,0.0911511,111.536482660095
19.321,1500,-0.02274863,0.01875824,0.0081511,111.536482660095
19.331,1500,0.01025137,-0.10224176,-0.1808489,111.536482660095
19.341,1500,0.02325137,0.10475824,0.2681511,111.536482660095
19.351,1500,0.20225137,-0.08824176,-0.1418489,111.536482660095
19.361,1500,-0.26574863,-0.08624176,-0.0188489,111.536482660095
19.371,1500,-0.16274863,-0.00924176,0.0851511,111.536482660095
19.381,1500,-0.07174863,-0.11324176,-0.2148489,111.536482660095
19.391,1500,-0.04274863,-0.18024176,-0.3518489,111.536482660095
19.401,1500,-0.13974863,-0.19124176,-0.2458489,111.536482660095
19.411,1500,-0.06274863,-0.19324176,-0.2558489,111.536482660095
19.421,1500,-0.33374863,-0.19124176,0.0181511,111.536482660095
19.431,1500,0.24625137,-0.03524176,0.1221511,111.536482660095
19.441,1500,-0.00874863,-0.02824176,0.1281511,111.536482660095
19.451,1500,0.16025137,-0.02824176,0.1081511,111.536482660095
19.462,1500,-0.03074863,-0.15024176,-0.0748489,111.536482660095
19.472,1500,-0.02774863,-0.09824176,0.0621511,111.536482660095
19.482,1500,-0.02374863,-0.08724176,0.0441511,111.536482660095
19.492,1500,-0.00574863,-0.06324176,-0.0028489,111.536482660095
19.502,1500,0.00025137,-0.05624176,-0.0038489,111.536482660095
19.511,1500,-0.07174863,-0.06924176,-0.0138489,111.536482660095
19.521,1500,-0.03074863,-0.02324176,0.0041511,111.536482660095
19.531,1500,-0.01574863,-0.03324176,0.0041511,111.536482660095
19.541,1500,-0.01674863,-0.02324176,0.0131511,111.536482660095
19.551,1500,-0.01774863,-0.01824176,-0.0058489,111.536482660095
19.561,1500,-0.01374863,-0.02624176,0.0021511,111.536482660095
19.572,1500,0.00525137,-0.01524176,-0.0028489,111.536482660095
19.582,1500,0.00325137,-0.00724176,0.0011511,111.536482660095
19.592,1500,0.02425137,-0.00324176,0.0031511,111.536482660095
19.602,1500,0.03425137,0.01375824,0.0021511,111.536482660095
19.611,1500,0.04825137,0.03875824,0.0041511,111.536482660095
19.621,1500,0.06725137,0.07175824,0.0031511,111.536482660095
19.631,1500,0.06925137,0.10275824,0.0041511,111.536482660095
19.641,1500,0.08925137,0.11875824,-0.0038489,111.536482660095
19.651,1500,0.07225137,0.14275824,-0.0058489,77.0229326772476
19.661,1500,0.04025137,0.17375824,-0.0358489,77.0229326772476
19.671,1500,0.09225137,0.20775824,-0.0298489,77.0229326772476
19.681,1500,0.00825137,0.12775824,0.0161511,77.0229326772476
19.691,1500,0.07225137,0.18075824,0.0511511,77.0229326772476
19.701,1500,0.24125137,0.16475824,0.0201511,77.0229326772476
19.712,1500,0.20825137,0.13975824,0.0561511,77.0229326772476
19.721,1500,-0.12374863,0.03675824,0.0701511,77.0229326772476
19.732,1500,-0.12574863,0.06375824,-0.0388489,77.0229326772476
19.742,1500,0.14325137,0.01675824,-0.1468489,77.0229326772476
19.752,1500,-0.23974863,0.01675824,0.0381511,77.0229326772476
19.761,1500,-0.33274863,0.00375824,0.0951511,77.0229326772476
19.771,1500,0.10025137,0.16975824,0.3891511,77.0229326772476
19.781,1500,0.22125137,0.14675824,0.3581511,77.0229326772476
19.791,1500,0.26725137,0.16075824,0.3101511,77.0229326772476
19.801,1500,0.45525137,0.04775824,0.1281511,77.0229326772476
19.811,1500,-0.02274863,-0.06424176,-0.2208489,77.0229326772476
19.821,1500,-0.05974863,-0.08324176,-0.3598489,77.0229326772476
19.832,1500,-0.17174863,-0.11024176,-0.1668489,77.0229326772476
19.842,1500,-0.22674863,-0.02224176,0.0441511,77.0229326772476
19.852,1500,0.07025137,0.12475824,0.2781511,77.0229326772476
19.862,1500,0.03025137,-0.02024176,0.0381511,77.0229326772476
19.871,1500,0.06725137,-0.07924176,0.0351511,77.0229326772476
19.881,1500,0.16225137,0.02375824,0.1481511,77.0229326772476
19.891,1500,0.15025137,0.11075824,-0.1008489,77.0229326772476
19.901,1500,-0.07174863,-0.07124176,-0.2468489,77.0229326772476
19.911,1500,-0.41274863,-0.13824176,-0.3278489,77.0229326772476
19.921,1500,-0.45074863,-0.03424176,-0.1878489,77.0229326772476
19.932,1500,-0.09974863,-0.01824176,0.0031511,77.0229326772476
19.942,1500,0.19725137,0.16575824,0.3061511,77.0229326772476
19.952,1500,0.35625137,0.04475824,-0.0178489,77.0229326772476
19.962,1500,0.25625137,-0.07424176,-0.1468489,77.0229326772476
19.972,1500,-0.20374863,-0.14324176,-0.4818489,77.0229326772476
19.981,1500,-0.03174863,-0.10424176,-0.2608489,77.0229326772476
19.991,1500,-0.22774863,0.07575824,0.1791511,77.0229326772476
20.001,1500,-0.22074863,0.01175824,0.1191511,77.0229326772476
20.011,1500,0.06725137,-0.07924176,-0.0398489,77.0229326772476
20.022,1500,0.03225137,-0.18924176,-0.2298489,77.0229326772476
20.032,1500,-0.40974863,-0.27824176,-0.2518489,77.0229326772476
20.042,1500,-0.06874863,-0.19124176,-0.0568489,77.0229326772476
20.052,1500,0.12225137,-0.17524176,0.2631511,77.0229326772476
20.062,1500,-0.04774863,-0.21024176,0.0451511,77.0229326772476
20.071,1500,-0.20174863,-0.25124176,-0.0528489,77.0229326772476
20.081,1500,-0.11774863,-0.19824176,0.0521511,77.0229326772476
20.091,1500,-0.00074863,-0.23724176,0.0001511,77.0229326772476
20.101,1500,-0.03474863,-0.18324176,-0.0218489,77.0229326772476
20.111,1500,-0.04274863,-0.14424176,0.0171511,77.0229326772476
20.121,1500,-0.01574863,-0.11424176,0.0161511,77.0229326772476
20.132,1500,-0.02774863,-0.11124176,0.0041511,77.0229326772476
20.142,1500,0.01125137,-0.08624176,0.0041511,77.0229326772476
20.152,1500,-0.02174863,-0.02824176,0.0081511,77.0229326772476
20.162,1500,-0.02774863,-0.06624176,-0.0018489,152.258249716682
20.172,1500,-0.01974863,-0.08724176,0.0131511,152.258249716682
20.182,1500,-0.02074863,-0.04924176,0.0021511,152.258249716682
20.191,1500,0.01625137,-0.03824176,0.0051511,152.258249716682
20.201,1500,-0.05274863,-0.11224176,0.1321511,152.258249716682
20.211,1500,-0.13174863,-0.23624176,-0.0268489,152.258249716682
20.221,1500,-0.09074863,-0.28224176,0.0191511,152.258249716682
20.232,1500,-0.21974863,-0.31324176,0.0251511,152.258249716682
20.242,1500,0.03425137,-0.23224176,0.0001511,152.258249716682
20.252,1500,-0.18574863,-0.24724176,0.0911511,152.258249716682
20.262,1500,0.06225137,-0.15624176,0.1171511,152.258249716682
20.272,1500,-0.01174863,-0.17024176,-0.0398489,152.258249716682
20.282,1500,-0.12274863,-0.14824176,-0.0168489,152.258249716682
20.291,1500,-0.09674863,-0.17324176,0.0071511,152.258249716682
20.301,1500,-0.05474863,-0.09024176,0.0241511,152.258249716682
20.311,1500,-0.08974863,-0.08824176,-0.0068489,152.258249716682
20.321,1500,-0.29074863,-0.13524176,-0.2128489,152.258249716682
20.331,1500,-0.05574863,-0.06224176,-0.0098489,152.258249716682
20.342,1500,0.22625137,-0.03224176,0.0721511,152.258249716682
20.352,1500,0.14325137,0.05575824,0.1111511,152.258249716682
20.362,1500,0.05025137,0.03175824,-0.0618489,152.258249716682
20.372,1500,-0.06274863,-0.03524176,-0.0788489,152.258249716682
20.382,1500,-0.02274863,-0.02824176,-0.1078489,152.258249716682
20.392,1500,-0.02474863,-0.02424176,-0.0718489,152.258249716682
20.401,1500,0.08225137,0.01975824,0.1631511,152.258249716682
20.411,1500,0.00425137,0.08975824,0.0781511,152.258249716682
20.421,1500,0.07925137,0.04475824,0.0841511,152.258249716682
20.432,1500,-0.01674863,-0.10324176,-0.0608489,152.258249716682
20.442,1500,-0.16874863,-0.04924176,-0.1918489,152.258249716682
20.452,1500,0.16725137,0.07875824,0.1111511,152.258249716682
20.462,1500,0.08525137,-0.04724176,0.0721511,152.258249716682
20.472,1500,-0.07374863,0.04075824,0.0401511,152.258249716682
