frame,id,timestamp(s),accX,accY,accZ,gyrX,gyrY,gyrZ,magX,magY,magZ,eulerRoll,eulerPitch,eulerYaw,quatW,quatX,quatY,quatZ,
1,1,3587.843,-0.048,-0.021,0.984,0.0,0.0,0.0,14,-11,-14,2.54,-1.26,-0.29,1.0,-0.011,0.022,-0.003,
2,1,3587.853,-0.042,-0.025,0.99,0.0,0.0,0.0,14,-11,-14,2.54,-1.26,-0.29,1.0,-0.011,0.022,-0.003,
3,1,3587.863,-0.047,-0.017,0.986,0.0,0.0,0.0,14,-11,-14,2.54,-1.26,-0.29,1.0,-0.011,0.022,-0.003,
4,1,3587.873,-0.043,-0.027,0.993,0.0,0.0,0.0,14,-11,-14,2.54,-1.26,-0.29,1.0,-0.011,0.022,-0.003,
5,1,3587.883,-0.038,-0.021,0.989,0.0,0.0,0.0,14,-11,-14,2.54,-1.26,-0.29,1.0,-0.011,0.022,-0.003,
6,1,3587.893,-0.051,-0.021,0.986,0.0,0.0,0.0,15,-11,-14,2.54,-1.26,-0.29,1.0,-0.011,0.022,-0.003,
7,1,3587.903,-0.044,-0.021,0.99,0.0,0.0,0.0,14,-11,-14,2.54,-1.26,-0.29,1.0,-0.011,0.022,-0.003,
8,1,3587.913,-0.044,-0.024,0.985,0.0,0.0,0.0,14,-11,-14,2.54,-1.26,-0.29,1.0,-0.011,0.022,-0.003,
9,1,3587.923,-0.04,-0.023,0.985,0.0,0.0,0.0,14,-11,-14,2.54,-1.26,-0.29,1.0,-0.011,0.022,-0.003,
10,1,3587.933,-0.041,-0.021,0.986,0.0,0.0,0.0,14,-11,-14,2.54,-1.26,-0.29,1.0,-0.011,0.022,-0.003,
11,1,3587.943,-0.046,-0.023,0.989,0.0,0.0,0.0,15,-11,-14,2.54,-1.26,-0.29,1.0,-0.011,0.022,-0.003,
12,1,3587.953,-0.041,-0.027,0.986,0.0,0.0,0.0,14,-11,-14,2.54,-1.26,-0.29,1.0,-0.011,0.022,-0.003,
13,1,3587.963,-0.044,-0.017,0.987,0.0,0.0,0.0,14,-11,-14,2.54,-1.26,-0.29,1.0,-0.011,0.022,-0.003,
14,1,3587.973,-0.042,-0.024,0.984,0.0,0.0,0.0,14,-11,-14,2.54,-1.26,-0.29,1.0,-0.011,0.022,-0.003,
15,1,3587.983,-0.052,-0.024,0.982,0.0,0.0,0.0,14,-11,-14,2.54,-1.26,-0.29,1.0,-0.011,0.022,-0.003,
16,1,3587.993,-0.048,-0.019,0.993,0.0,0.0,0.0,15,-11,-14,2.54,-1.26,-0.29,1.0,-0.011,0.022,-0.003,
17,1,3588.003,-0.042,-0.021,0.993,0.0,0.0,0.0,15,-11,-14,2.54,-1.26,-0.29,1.0,-0.011,0.022,-0.003,
18,1,3588.013,-0.041,-0.023,0.992,0.0,0.0,0.0,14,-11,-14,2.54,-1.26,-0.29,1.0,-0.011,0.022,-0.003,
19,1,3588.023,-0.045,-0.021,0.99,0.0,0.0,0.0,14,-11,-14,2.54,-1.26,-0.29,1.0,-0.011,0.022,-0.003,
20,1,3588.033,-0.041,-0.018,0.993,0.0,0.0,0.0,14,-11,-14,2.54,-1.26,-0.29,1.0,-0.011,0.022,-0.003,
21,1,3588.043,-0.046,-0.02,0.984,0.0,0.0,0.0,14,-11,-14,2.54,-1.26,-0.29,1.0,-0.011,0.022,-0.003,
22,1,3588.053,-0.041,-0.026,0.986,0.0,0.0,0.0,14,-11,-14,2.54,-1.26,-0.29,1.0,-0.011,0.022,-0.003,
23,1,3588.063,-0.046,-0.018,0.993,0.0,0.0,0.0,14,-11,-14,2.54,-1.26,-0.29,1.0,-0.011,0.022,-0.003,
24,1,3588.073,-0.046,-0.022,0.979,0.0,0.0,0.0,14,-11,-14,2.54,-1.26,-0.29,1.0,-0.011,0.022,-0.003,
25,1,3588.083,-0.049,-0.025,0.992,0.0,0.0,0.0,14,-11,-14,2.54,-1.26,-0.29,1.0,-0.011,0.022,-0.003,
26,1,3588.093,-0.042,-0.023,0.992,0.0,0.0,0.0,15,-11,-14,2.54,-1.26,-0.29,1.0,-0.011,0.022,-0.003,
27,1,3588.103,-0.044,-0.021,0.988,0.0,0.0,0.0,15,-11,-14,2.54,-1.26,-0.29,1.0,-0.011,0.022,-0.003,
28,1,3588.113,-0.044,-0.023,0.991,0.0,0.0,0.0,14,-11,-14,2.54,-1.26,-0.29,1.0,-0.011,0.022,-0.003,
29,1,3588.123,-0.049,-0.023,0.984,0.0,0.0,0.0,14,-11,-14,2.54,-1.26,-0.29,1.0,-0.011,0.022,-0.003,
30,1,3588.133,-0.045,-0.022,0.988,0.0,0.0,0.0,14,-11,-14,2.54,-1.26,-0.29,1.0,-0.011,0.022,-0.003,
31,1,3588.143,-0.042,-0.023,0.991,0.0,0.0,0.0,14,-11,-14,2.54,-1.26,-0.29,1.0,-0.011,0.022,-0.003,
32,1,3588.153,-0.048,-0.022,0.984,0.0,0.0,0.0,15,-12,-14,2.54,-1.26,-0.29,1.0,-0.011,0.022,-0.003,
33,1,3588.163,-0.046,-0.019,0.989,0.0,0.0,0.0,15,-11,-14,2.54,-1.26,-0.29,1.0,-0.011,0.022,-0.003,
34,1,3588.173,-0.038,-0.024,0.989,0.0,0.0,0.0,14,-11,-14,2.54,-1.26,-0.29,1.0,-0.011,0.022,-0.003,
35,1,3588.183,-0.042,-0.022,0.99,0.0,0.0,0.0,14,-11,-14,2.54,-1.26,-0.29,1.0,-0.011,0.022,-0.003,
36,1,3588.193,-0.044,-0.02,0.99,0.0,0.0,0.0,14,-12,-14,2.54,-1.26,-0.29,1.0,-0.011,0.022,-0.003,
37,1,3588.203,-0.045,-0.021,0.987,0.0,0.0,0.0,14,-11,-14,2.54,-1.26,-0.29,1.0,-0.011,0.022,-0.003,
38,1,3588.213,-0.047,-0.026,0.987,0.0,0.0,0.0,14,-12,-14,2.54,-1.26,-0.29,1.0,-0.011,0.022,-0.003,
39,1,3588.223,-0.041,-0.023,0.988,0.0,0.0,0.0,14,-11,-14,2.54,-1.27,-0.29,1.0,-0.011,0.022,-0.003,
40,1,3588.233,-0.046,-0.02,0.986,0.0,0.0,0.0,14,-11,-14,2.54,-1.27,-0.29,1.0,-0.011,0.022,-0.003,
41,1,3588.243,-0.044,-0.024,0.993,0.0,0.0,0.0,14,-11,-13,2.54,-1.26,-0.29,1.0,-0.011,0.022,-0.003,
42,1,3588.253,-0.042,-0.023,0.991,0.0,0.0,0.0,15,-11,-13,2.54,-1.26,-0.29,1.0,-0.011,0.022,-0.003,
43,1,3588.263,-0.047,-0.017,0.981,0.0,0.0,0.0,14,-11,-13,2.54,-1.26,-0.29,1.0,-0.011,0.022,-0.003,
44,1,3588.273,-0.046,-0.019,0.987,0.0,0.0,0.0,14,-11,-14,2.54,-1.26,-0.29,1.0,-0.011,0.022,-0.003,
45,1,3588.283,-0.046,-0.021,0.983,0.0,0.0,0.0,14,-12,-14,2.54,-1.26,-0.29,1.0,-0.011,0.022,-0.003,
46,1,3588.293,-0.046,-0.021,0.986,0.0,0.0,0.0,15,-11,-14,2.54,-1.26,-0.29,1.0,-0.011,0.022,-0.003,
47,1,3588.303,-0.041,-0.022,0.987,0.0,0.0,0.0,15,-11,-14,2.54,-1.26,-0.29,1.0,-0.011,0.022,-0.003,
48,1,3588.313,-0.04,-0.021,0.989,0.0,0.0,0.0,14,-12,-14,2.54,-1.26,-0.29,1.0,-0.011,0.022,-0.003,
49,1,3588.323,-0.045,-0.022,0.985,0.0,0.0,0.0,14,-11,-14,2.54,-1.26,-0.29,1.0,-0.011,0.022,-0.003,
50,1,3588.333,-0.042,-0.019,0.994,0.0,0.0,0.0,15,-11,-13,2.54,-1.26,-0.29,1.0,-0.011,0.022,-0.003,
51,1,3588.343,-0.037,-0.025,0.99,0.0,0.0,0.0,15,-11,-14,2.54,-1.26,-0.29,1.0,-0.011,0.022,-0.003,
52,1,3588.353,-0.054,-0.019,0.989,0.0,0.0,0.0,15,-11,-14,2.54,-1.26,-0.29,1.0,-0.011,0.022,-0.003,
53,1,3588.363,-0.04,-0.024,0.991,0.0,0.0,0.0,14,-11,-14,2.54,-1.26,-0.29,1.0,-0.011,0.022,-0.003,
54,1,3588.373,-0.041,-0.023,0.983,0.0,0.0,0.0,14,-11,-14,2.54,-1.26,-0.29,1.0,-0.011,0.022,-0.003,
55,1,3588.383,-0.044,-0.021,0.989,0.0,0.0,0.0,14,-11,-14,2.53,-1.26,-0.29,1.0,-0.011,0.022,-0.003,
56,1,3588.393,-0.046,-0.018,0.984,0.0,0.0,0.0,15,-11,-14,2.53,-1.26,-0.29,1.0,-0.011,0.022,-0.003,
57,1,3588.403,-0.044,-0.022,0.982,0.0,0.0,0.0,15,-11,-14,2.54,-1.26,-0.29,1.0,-0.011,0.022,-0.003,
58,1,3588.413,-0.042,-0.023,0.991,0.0,0.0,0.0,15,-11,-14,2.54,-1.26,-0.29,1.0,-0.011,0.022,-0.003,
59,1,3588.423,-0.044,-0.025,0.986,0.0,0.0,0.0,15,-11,-14,2.54,-1.26,-0.29,1.0,-0.011,0.022,-0.003,
60,1,3588.433,-0.045,-0.017,0.989,0.0,0.0,0.0,14,-11,-13,2.54,-1.26,-0.29,1.0,-0.011,0.022,-0.003,
61,1,3588.443,-0.042,-0.022,0.991,0.0,0.0,0.0,14,-11,-14,2.54,-1.26,-0.29,1.0,-0.011,0.022,-0.003,
62,1,3588.453,-0.042,-0.025,0.99,0.0,0.0,0.0,14,-11,-14,2.54,-1.26,-0.29,1.0,-0.011,0.022,-0.003,
63,1,3588.463,-0.048,-0.02,0.988,0.0,0.0,0.0,14,-12,-14,2.54,-1.26,-0.29,1.0,-0.011,0.022,-0.003,
64,1,3588.473,-0.047,-0.021,0.988,0.0,0.0,0.0,14,-12,-14,2.54,-1.26,-0.29,1.0,-0.011,0.022,-0.003,
65,1,3588.483,-0.045,-0.021,0.985,0.0,0.0,0.0,15,-11,-14,2.54,-1.26,-0.29,1.0,-0.011,0.022,-0.003,
66,1,3588.493,-0.037,-0.024,0.992,0.0,0.0,0.0,14,-11,-14,2.54,-1.26,-0.29,1.0,-0.011,0.022,-0.003,
67,1,3588.503,-0.047,-0.021,0.982,0.0,0.0,0.0,14,-12,-14,2.54,-1.26,-0.29,1.0,-0.011,0.022,-0.003,
68,1,3588.513,-0.044,-0.021,0.988,0.0,0.0,0.0,14,-11,-14,2.54,-1.26,-0.29,1.0,-0.011,0.022,-0.003,
69,1,3588.523,-0.045,-0.023,0.986,0.0,0.0,0.0,14,-11,-14,2.54,-1.26,-0.29,1.0,-0.011,0.022,-0.003,
70,1,3588.533,-0.042,-0.021,0.981,0.0,0.0,0.0,14,-11,-14,2.54,-1.26,-0.29,1.0,-0.011,0.022,-0.003,
71,1,3588.543,-0.044,-0.023,0.986,0.0,0.0,0.0,14,-11,-13,2.54,-1.26,-0.29,1.0,-0.011,0.022,-0.003,
72,1,3588.553,-0.048,-0.021,0.986,0.0,0.0,0.0,15,-11,-14,2.54,-1.26,-0.29,1.0,-0.011,0.022,-0.003,
73,1,3588.563,-0.042,-0.021,0.995,0.0,0.0,0.0,15,-11,-14,2.54,-1.26,-0.29,1.0,-0.011,0.022,-0.003,
74,1,3588.573,-0.041,-0.026,0.985,0.0,0.0,0.0,15,-11,-14,2.54,-1.26,-0.29,1.0,-0.011,0.022,-0.003,
75,1,3588.583,-0.048,-0.021,0.986,0.0,0.0,0.0,15,-11,-13,2.54,-1.26,-0.29,1.0,-0.011,0.022,-0.003,
76,1,3588.593,-0.042,-0.022,0.99,0.0,0.0,0.0,14,-11,-13,2.54,-1.26,-0.29,1.0,-0.011,0.022,-0.003,
77,1,3588.603,-0.045,-0.019,0.986,0.0,0.0,0.0,14,-12,-13,2.54,-1.26,-0.29,1.0,-0.011,0.022,-0.003,
78,1,3588.613,-0.042,-0.022,0.993,0.0,0.0,0.0,15,-12,-14,2.54,-1.26,-0.29,1.0,-0.011,0.022,-0.003,
79,1,3588.623,-0.046,-0.019,0.985,0.0,0.0,0.0,15,-12,-14,2.54,-1.26,-0.29,1.0,-0.011,0.022,-0.003,
80,1,3588.633,-0.049,-0.021,0.985,0.0,0.0,0.0,14,-11,-13,2.54,-1.26,-0.29,1.0,-0.011,0.022,-0.003,
81,1,3588.643,-0.039,-0.027,0.989,0.0,0.0,0.0,14,-12,-14,2.54,-1.26,-0.29,1.0,-0.011,0.022,-0.003,
82,1,3588.653,-0.049,-0.021,0.986,0.0,0.0,0.0,14,-11,-14,2.54,-1.26,-0.29,1.0,-0.011,0.022,-0.003,
83,1,3588.663,-0.045,-0.02,0.99,0.0,0.0,0.0,15,-11,-14,2.54,-1.26,-0.29,1.0,-0.011,0.022,-0.003,
84,1,3588.673,-0.043,-0.021,0.986,0.0,0.0,0.0,15,-11,-14,2.54,-1.26,-0.29,1.0,-0.011,0.022,-0.003,
85,1,3588.684,-0.046,-0.025,0.992,0.0,0.0,0.0,14,-11,-14,2.54,-1.26,-0.29,1.0,-0.011,0.022,-0.003,
86,1,3588.694,-0.044,-0.022,0.99,0.0,0.0,0.0,14,-11,-14,2.54,-1.26,-0.29,1.0,-0.011,0.022,-0.003,
87,1,3588.704,-0.041,-0.019,0.989,0.0,0.0,0.0,14,-11,-14,2.54,-1.26,-0.29,1.0,-0.011,0.022,-0.003,
88,1,3588.714,-0.048,-0.024,0.986,0.0,0.0,0.0,14,-11,-13,2.54,-1.26,-0.29,1.0,-0.011,0.022,-0.003,
89,1,3588.724,-0.043,-0.026,0.989,0.0,0.0,0.0,14,-11,-13,2.54,-1.26,-0.29,1.0,-0.011,0.022,-0.003,
90,1,3588.733,-0.046,-0.019,0.989,0.0,0.0,0.0,15,-11,-14,2.54,-1.26,-0.29,1.0,-0.011,0.022,-0.003,
91,1,3588.743,-0.042,-0.02,0.983,0.0,0.0,0.0,14,-11,-13,2.54,-1.26,-0.29,1.0,-0.011,0.022,-0.003,
92,1,3588.753,-0.048,-0.021,0.988,0.0,0.0,0.0,15,-11,-14,2.54,-1.26,-0.29,1.0,-0.011,0.022,-0.003,
93,1,3588.763,-0.044,-0.021,0.985,0.0,0.0,0.0,14,-11,-14,2.54,-1.26,-0.29,1.0,-0.011,0.022,-0.003,
94,1,3588.773,-0.044,-0.021,0.987,0.0,0.0,0.0,14,-11,-14,2.54,-1.26,-0.29,1.0,-0.011,0.022,-0.003,
95,1,3588.783,-0.047,-0.018,0.983,0.0,0.0,0.0,14,-11,-14,2.53,-1.26,-0.29,1.0,-0.011,0.022,-0.003,
96,1,3588.794,-0.042,-0.023,0.988,0.0,0.0,0.0,14,-11,-14,2.54,-1.26,-0.29,1.0,-0.011,0.022,-0.003,
97,1,3588.803,-0.044,-0.023,0.988,0.0,0.0,0.0,14,-11,-14,2.54,-1.26,-0.29,1.0,-0.011,0.022,-0.003,
98,1,3588.814,-0.041,-0.021,0.987,0.0,0.0,0.0,14,-11,-13,2.53,-1.26,-0.29,1.0,-0.011,0.022,-0.003,
99,1,3588.824,-0.048,-0.02,0.987,0.0,0.0,0.0,14,-11,-13,2.53,-1.26,-0.29,1.0,-0.011,0.022,-0.003,
100,1,3588.834,-0.045,-0.023,0.993,0.0,0.0,0.0,14,-11,-14,2.54,-1.26,-0.29,1.0,-0.011,0.022,-0.003,
101,1,3588.844,-0.043,-0.023,0.992,0.0,0.0,0.0,14,-11,-14,2.54,-1.26,-0.29,1.0,-0.011,0.022,-0.003,
102,1,3588.854,-0.042,-0.019,0.987,0.0,0.0,0.0,14,-11,-14,2.54,-1.26,-0.29,1.0,-0.011,0.022,-0.003,
103,1,3588.864,-0.047,-0.02,0.982,0.0,0.0,0.0,14,-11,-13,2.54,-1.26,-0.29,1.0,-0.011,0.022,-0.003,
104,1,3588.874,-0.043,-0.024,0.984,0.0,0.0,0.0,14,-11,-13,2.54,-1.26,-0.29,1.0,-0.011,0.022,-0.003,
105,1,3588.884,-0.038,-0.023,0.989,0.0,0.0,0.0,14,-11,-14,2.54,-1.26,-0.29,1.0,-0.011,0.022,-0.003,
106,1,3588.894,-0.046,-0.018,0.985,0.0,0.0,0.0,14,-11,-14,2.54,-1.26,-0.29,1.0,-0.011,0.022,-0.003,
107,1,3588.904,-0.043,-0.021,0.986,0.0,0.0,0.0,14,-11,-13,2.54,-1.26,-0.29,1.0,-0.011,0.022,-0.003,
108,1,3588.914,-0.044,-0.021,0.989,0.0,0.0,0.0,14,-11,-14,2.54,-1.26,-0.29,1.0,-0.011,0.022,-0.003,
109,1,3588.924,-0.04,-0.021,0.987,0.0,0.0,0.0,14,-11,-14,2.54,-1.26,-0.29,1.0,-0.011,0.022,-0.003,
110,1,3588.934,-0.049,-0.021,0.985,0.0,0.0,0.0,14,-11,-14,2.54,-1.26,-0.29,1.0,-0.011,0.022,-0.003,
111,1,3588.944,-0.045,-0.021,0.99,0.0,0.0,0.0,14,-11,-14,2.54,-1.26,-0.29,1.0,-0.011,0.022,-0.003,
112,1,3588.954,-0.043,-0.025,0.989,0.0,0.0,0.0,14,-11,-14,2.54,-1.26,-0.29,1.0,-0.011,0.022,-0.003,
113,1,3588.964,-0.041,-0.021,0.989,0.0,0.0,0.0,14,-11,-14,2.54,-1.26,-0.29,1.0,-0.011,0.022,-0.003,
114,1,3588.974,-0.047,-0.021,0.986,0.0,0.0,0.0,14,-11,-14,2.54,-1.26,-0.29,1.0,-0.011,0.022,-0.003,
115,1,3588.984,-0.045,-0.021,0.989,0.0,0.0,0.0,15,-11,-13,2.54,-1.26,-0.29,1.0,-0.011,0.022,-0.003,
116,1,3588.994,-0.04,-0.024,0.989,0.0,0.0,0.0,14,-12,-13,2.54,-1.26,-0.29,1.0,-0.011,0.022,-0.003,
117,1,3589.004,-0.044,-0.023,0.986,0.0,0.0,0.0,15,-12,-14,2.54,-1.26,-0.29,1.0,-0.011,0.022,-0.003,
118,1,3589.014,-0.042,-0.02,0.982,0.0,0.0,0.0,15,-12,-13,2.54,-1.26,-0.29,1.0,-0.011,0.022,-0.003,
119,1,3589.024,-0.045,-0.022,0.985,0.0,0.0,0.0,15,-12,-13,2.54,-1.26,-0.29,1.0,-0.011,0.022,-0.003,
120,1,3589.034,-0.043,-0.024,0.992,0.0,0.0,0.0,14,-11,-13,2.54,-1.26,-0.29,1.0,-0.011,0.022,-0.003,
121,1,3589.044,-0.04,-0.017,0.985,0.0,0.0,0.0,14,-11,-14,2.54,-1.26,-0.29,1.0,-0.011,0.022,-0.003,
122,1,3589.054,-0.047,-0.023,0.988,0.0,0.0,0.0,14,-11,-14,2.54,-1.26,-0.29,1.0,-0.011,0.022,-0.003,
123,1,3589.064,-0.047,-0.024,0.99,0.0,0.0,0.0,14,-11,-14,2.54,-1.26,-0.29,1.0,-0.011,0.022,-0.003,
124,1,3589.074,-0.04,-0.021,0.994,0.0,0.0,0.0,14,-11,-14,2.54,-1.26,-0.29,1.0,-0.011,0.022,-0.003,
125,1,3589.084,-0.04,-0.021,0.988,0.0,0.0,0.0,14,-12,-14,2.53,-1.26,-0.29,1.0,-0.011,0.022,-0.003,
126,1,3589.094,-0.048,-0.018,0.983,0.0,0.0,0.0,14,-11,-14,2.53,-1.26,-0.29,1.0,-0.011,0.022,-0.003,
127,1,3589.104,-0.045,-0.019,0.982,0.0,0.0,0.0,14,-11,-14,2.54,-1.26,-0.29,1.0,-0.011,0.022,-0.003,
128,1,3589.114,-0.047,-0.023,0.987,0.0,0.0,0.0,14,-11,-14,2.54,-1.26,-0.29,1.0,-0.011,0.022,-0.003,
129,1,3589.124,-0.042,-0.022,0.99,0.0,0.0,0.0,14,-11,-14,2.54,-1.26,-0.29,1.0,-0.011,0.022,-0.003,
130,1,3589.134,-0.044,-0.02,0.99,0.0,0.0,0.0,15,-11,-14,2.54,-1.26,-0.29,1.0,-0.011,0.022,-0.003,
131,1,3589.144,-0.043,-0.019,0.986,0.0,0.0,0.0,15,-11,-14,2.54,-1.26,-0.29,1.0,-0.011,0.022,-0.003,
132,1,3589.154,-0.043,-0.024,0.987,0.0,0.0,0.0,15,-11,-14,2.54,-1.26,-0.29,1.0,-0.011,0.022,-0.003,
133,1,3589.164,-0.045,-0.021,0.988,0.0,0.0,0.0,15,-11,-14,2.54,-1.26,-0.29,1.0,-0.011,0.022,-0.003,
134,1,3589.174,-0.047,-0.018,0.986,0.0,0.0,0.0,14,-11,-14,2.54,-1.26,-0.29,1.0,-0.011,0.022,-0.003,
135,1,3589.184,-0.04,-0.027,0.99,0.0,0.0,0.0,14,-11,-14,2.54,-1.26,-0.29,1.0,-0.011,0.022,-0.003,
136,1,3589.194,-0.044,-0.025,0.993,0.0,0.0,0.0,15,-11,-14,2.54,-1.26,-0.29,1.0,-0.011,0.022,-0.003,
137,1,3589.204,-0.048,-0.02,0.988,0.0,0.0,0.0,15,-12,-14,2.54,-1.26,-0.29,1.0,-0.011,0.022,-0.003,
138,1,3589.214,-0.045,-0.021,0.99,0.0,0.0,0.0,14,-11,-14,2.54,-1.26,-0.29,1.0,-0.011,0.022,-0.003,
139,1,3589.224,-0.044,-0.026,0.985,0.0,0.0,0.0,14,-11,-14,2.54,-1.25,-0.29,1.0,-0.011,0.022,-0.003,
140,1,3589.234,-0.04,-0.021,0.989,0.0,0.0,0.0,14,-11,-14,2.54,-1.26,-0.29,1.0,-0.011,0.022,-0.003,
141,1,3589.244,-0.041,-0.02,0.987,0.0,0.0,0.0,15,-11,-13,2.54,-1.26,-0.29,1.0,-0.011,0.022,-0.003,
142,1,3589.254,-0.047,-0.023,0.986,0.0,0.0,0.0,14,-11,-13,2.54,-1.26,-0.29,1.0,-0.011,0.022,-0.003,
143,1,3589.264,-0.043,-0.022,0.991,0.0,0.0,0.0,14,-12,-14,2.54,-1.26,-0.29,1.0,-0.011,0.022,-0.003,
144,1,3589.274,-0.045,-0.021,0.99,0.0,0.0,0.0,14,-12,-14,2.54,-1.26,-0.29,1.0,-0.011,0.022,-0.003,
145,1,3589.284,-0.043,-0.022,0.985,0.0,0.0,0.0,14,-11,-14,2.54,-1.26,-0.29,1.0,-0.011,0.022,-0.003,
146,1,3589.294,-0.044,-0.024,0.987,0.0,0.0,0.0,14,-12,-13,2.54,-1.26,-0.29,1.0,-0.011,0.022,-0.003,
147,1,3589.304,-0.041,-0.021,0.99,0.0,0.0,0.0,14,-12,-14,2.54,-1.26,-0.29,1.0,-0.011,0.022,-0.003,
148,1,3589.314,-0.045,-0.021,0.991,0.0,0.0,0.0,14,-12,-14,2.54,-1.26,-0.29,1.0,-0.011,0.022,-0.003,
149,1,3589.324,-0.044,-0.022,0.99,0.0,0.0,0.0,14,-12,-14,2.54,-1.26,-0.29,1.0,-0.011,0.022,-0.003,
150,1,3589.334,-0.047,-0.016,0.987,0.0,0.0,0.0,14,-11,-14,2.54,-1.26,-0.29,1.0,-0.011,0.022,-0.003,
151,1,3589.344,-0.04,-0.023,0.987,0.0,0.0,0.0,14,-11,-14,2.54,-1.26,-0.29,1.0,-0.011,0.022,-0.003,
152,1,3589.354,-0.044,-0.031,0.986,0.0,0.0,0.0,14,-11,-14,2.54,-1.25,-0.29,1.0,-0.011,0.022,-0.003,
153,1,3589.364,-0.046,-0.016,0.978,0.0,0.0,0.0,15,-11,-14,2.54,-1.26,-0.29,1.0,-0.011,0.022,-0.003,
154,1,3589.374,-0.044,-0.017,0.987,0.0,0.0,0.0,15,-11,-14,2.54,-1.26,-0.29,1.0,-0.011,0.022,-0.003,
155,1,3589.384,-0.039,-0.03,0.99,0.0,0.0,0.0,14,-11,-14,2.54,-1.25,-0.29,1.0,-0.011,0.022,-0.003,
156,1,3589.394,-0.042,-0.02,0.986,0.0,0.0,0.0,14,-11,-14,2.54,-1.26,-0.29,1.0,-0.011,0.022,-0.003,
157,1,3589.404,-0.046,-0.021,0.987,0.0,0.0,0.0,14,-11,-14,2.54,-1.26,-0.29,1.0,-0.011,0.022,-0.003,
158,1,3589.414,-0.043,-0.023,0.989,0.0,0.0,0.0,14,-11,-14,2.54,-1.26,-0.29,1.0,-0.011,0.022,-0.003,
159,1,3589.424,-0.045,-0.02,0.99,0.0,0.0,0.0,14,-12,-14,2.54,-1.26,-0.29,1.0,-0.011,0.022,-0.003,
160,1,3589.434,-0.046,-0.019,0.99,0.0,0.0,0.0,14,-11,-14,2.54,-1.26,-0.29,1.0,-0.011,0.022,-0.003,
161,1,3589.444,-0.043,-0.019,0.985,0.0,0.0,0.0,14,-12,-13,2.54,-1.26,-0.29,1.0,-0.011,0.022,-0.003,
162,1,3589.454,-0.043,-0.023,0.988,0.0,0.0,0.0,14,-12,-13,2.54,-1.26,-0.29,1.0,-0.011,0.022,-0.003,
163,1,3589.464,-0.048,-0.024,0.992,0.0,0.0,0.0,14,-11,-13,2.54,-1.26,-0.29,1.0,-0.011,0.022,-0.003,
164,1,3589.474,-0.042,-0.021,0.984,0.0,0.0,0.0,14,-11,-13,2.54,-1.26,-0.29,1.0,-0.011,0.022,-0.003,
165,1,3589.484,-0.043,-0.019,0.989,0.0,0.0,0.0,15,-11,-14,2.54,-1.26,-0.29,1.0,-0.011,0.022,-0.003,
166,1,3589.494,-0.044,-0.021,0.989,0.0,0.0,0.0,15,-11,-14,2.54,-1.26,-0.29,1.0,-0.011,0.022,-0.003,
167,1,3589.504,-0.044,-0.024,0.993,0.0,0.0,0.0,15,-11,-14,2.54,-1.26,-0.29,1.0,-0.011,0.022,-0.003,
168,1,3589.514,-0.047,-0.02,0.988,0.0,0.0,0.0,15,-11,-14,2.54,-1.26,-0.29,1.0,-0.011,0.022,-0.003,
169,1,3589.524,-0.046,-0.023,0.988,0.0,0.0,0.0,15,-11,-14,2.54,-1.26,-0.29,1.0,-0.011,0.022,-0.003,
170,1,3589.534,-0.039,-0.021,0.989,0.0,0.0,0.0,14,-11,-14,2.54,-1.26,-0.29,1.0,-0.011,0.022,-0.003,
171,1,3589.544,-0.044,-0.024,0.988,0.0,0.0,0.0,14,-11,-14,2.54,-1.26,-0.29,1.0,-0.011,0.022,-0.003,
172,1,3589.554,-0.045,-0.019,0.987,0.0,0.0,0.0,14,-11,-14,2.54,-1.26,-0.29,1.0,-0.011,0.022,-0.003,
173,1,3589.564,-0.044,-0.022,0.984,0.0,0.0,0.0,14,-11,-14,2.54,-1.26,-0.29,1.0,-0.011,0.022,-0.003,
174,1,3589.574,-0.043,-0.021,0.984,0.0,0.0,0.0,14,-11,-14,2.54,-1.26,-0.29,1.0,-0.011,0.022,-0.003,
175,1,3589.584,-0.043,-0.024,0.988,0.0,0.0,0.0,15,-11,-14,2.54,-1.26,-0.29,1.0,-0.011,0.022,-0.003,
176,1,3589.594,-0.046,-0.021,0.99,0.0,0.0,0.0,14,-11,-14,2.54,-1.26,-0.29,1.0,-0.011,0.022,-0.003,
177,1,3589.604,-0.045,-0.021,0.989,0.0,0.0,0.0,14,-11,-14,2.54,-1.26,-0.29,1.0,-0.011,0.022,-0.003,
178,1,3589.614,-0.045,-0.021,0.99,0.0,0.0,0.0,15,-11,-14,2.54,-1.26,-0.29,1.0,-0.011,0.022,-0.003,
179,1,3589.624,-0.044,-0.019,0.985,0.0,0.0,0.0,14,-11,-14,2.54,-1.26,-0.29,1.0,-0.011,0.022,-0.003,
180,1,3589.634,-0.041,-0.023,0.989,0.0,0.0,0.0,14,-11,-14,2.54,-1.26,-0.29,1.0,-0.011,0.022,-0.003,
181,1,3589.644,-0.043,-0.021,0.989,0.0,0.0,0.0,14,-11,-14,2.54,-1.26,-0.29,1.0,-0.011,0.022,-0.003,
182,1,3589.654,-0.043,-0.021,0.989,0.0,0.0,0.0,15,-11,-14,2.54,-1.26,-0.29,1.0,-0.011,0.022,-0.003,
183,1,3589.664,-0.046,-0.021,0.986,0.0,0.0,0.0,15,-11,-14,2.53,-1.26,-0.29,1.0,-0.011,0.022,-0.003,
184,1,3589.674,-0.043,-0.022,0.986,0.0,0.0,0.0,15,-11,-13,2.54,-1.25,-0.29,1.0,-0.011,0.022,-0.003,
185,1,3589.684,-0.041,-0.024,0.987,0.0,0.0,0.0,14,-11,-14,2.54,-1.26,-0.29,1.0,-0.011,0.022,-0.003,
186,1,3589.694,-0.044,-0.027,0.983,0.0,0.0,0.0,14,-11,-14,2.54,-1.26,-0.29,1.0,-0.011,0.022,-0.003,
187,1,3589.704,-0.042,-0.021,0.984,0.0,0.0,0.0,14,-11,-14,2.54,-1.26,-0.29,1.0,-0.011,0.022,-0.003,
188,1,3589.714,-0.044,-0.018,0.989,0.0,0.0,0.0,14,-11,-14,2.54,-1.26,-0.29,1.0,-0.011,0.022,-0.003,
189,1,3589.724,-0.047,-0.027,0.981,0.0,0.0,0.0,14,-11,-14,2.54,-1.26,-0.29,1.0,-0.011,0.022,-0.003,
190,1,3589.734,-0.044,-0.021,0.989,0.0,0.0,0.0,14,-12,-14,2.54,-1.26,-0.29,1.0,-0.011,0.022,-0.003,
191,1,3589.744,-0.041,-0.018,0.986,0.0,0.0,0.0,15,-11,-14,2.54,-1.26,-0.29,1.0,-0.011,0.022,-0.003,
192,1,3589.754,-0.041,-0.024,0.99,0.0,0.0,0.0,14,-11,-14,2.54,-1.26,-0.29,1.0,-0.011,0.022,-0.003,
193,1,3589.764,-0.043,-0.02,0.985,0.0,0.0,0.0,14,-11,-14,2.54,-1.26,-0.29,1.0,-0.011,0.022,-0.003,
194,1,3589.774,-0.044,-0.021,0.99,0.0,0.0,0.0,14,-11,-14,2.54,-1.26,-0.29,1.0,-0.011,0.022,-0.003,
195,1,3589.784,-0.042,-0.019,0.99,0.0,0.0,0.0,14,-11,-14,2.54,-1.26,-0.29,1.0,-0.011,0.022,-0.003,
196,1,3589.794,-0.044,-0.024,0.989,0.0,0.0,0.0,14,-11,-14,2.54,-1.25,-0.29,1.0,-0.011,0.022,-0.003,
197,1,3589.804,-0.045,-0.02,0.986,0.0,0.0,0.0,15,-11,-13,2.54,-1.25,-0.29,1.0,-0.011,0.022,-0.003,
198,1,3589.814,-0.043,-0.019,0.984,0.0,0.0,0.0,14,-11,-13,2.54,-1.26,-0.29,1.0,-0.011,0.022,-0.003,
199,1,3589.824,-0.044,-0.024,0.987,0.0,0.0,0.0,14,-11,-14,2.54,-1.25,-0.29,1.0,-0.011,0.022,-0.003,
200,1,3589.834,-0.042,-0.021,0.986,0.0,0.0,0.0,14,-11,-14,2.54,-1.25,-0.29,1.0,-0.011,0.022,-0.003,
201,1,3589.844,-0.045,-0.02,0.985,0.0,0.0,0.0,14,-12,-14,2.54,-1.26,-0.29,1.0,-0.011,0.022,-0.003,
202,1,3589.854,-0.044,-0.023,0.99,0.0,0.0,0.0,14,-11,-13,2.54,-1.25,-0.29,1.0,-0.011,0.022,-0.003,
203,1,3589.864,-0.043,-0.022,0.985,0.0,0.0,0.0,14,-11,-14,2.54,-1.25,-0.29,1.0,-0.011,0.022,-0.003,
204,1,3589.874,-0.041,-0.022,0.99,0.0,0.0,0.0,14,-11,-14,2.54,-1.25,-0.29,1.0,-0.011,0.022,-0.003,
205,1,3589.884,-0.044,-0.021,0.978,0.0,0.0,0.0,14,-11,-14,2.54,-1.26,-0.29,1.0,-0.011,0.022,-0.003,
206,1,3589.894,-0.048,-0.026,0.985,0.0,0.0,0.0,14,-11,-14,2.54,-1.25,-0.29,1.0,-0.011,0.022,-0.003,
207,1,3589.904,-0.049,-0.018,0.987,0.0,0.0,0.0,14,-11,-14,2.54,-1.26,-0.29,1.0,-0.011,0.022,-0.003,
208,1,3589.914,-0.044,-0.017,0.991,0.0,0.0,0.0,15,-11,-14,2.54,-1.25,-0.29,1.0,-0.011,0.022,-0.003,
209,1,3589.924,-0.044,-0.024,0.982,0.0,0.0,0.0,15,-12,-14,2.54,-1.25,-0.29,1.0,-0.011,0.022,-0.003,
210,1,3589.934,-0.048,-0.019,0.987,0.0,0.0,0.0,14,-11,-14,2.54,-1.25,-0.29,1.0,-0.011,0.022,-0.003,
211,1,3589.944,-0.048,-0.023,0.988,0.0,0.0,0.0,14,-12,-14,2.54,-1.25,-0.29,1.0,-0.011,0.022,-0.003,
212,1,3589.954,-0.04,-0.025,0.988,0.0,0.0,0.0,14,-11,-14,2.54,-1.25,-0.29,1.0,-0.011,0.022,-0.003,
213,1,3589.964,-0.044,-0.019,0.981,0.0,0.0,0.0,15,-11,-14,2.54,-1.25,-0.29,1.0,-0.011,0.022,-0.003,
214,1,3589.974,-0.047,-0.02,0.989,0.0,0.0,0.0,14,-11,-14,2.54,-1.25,-0.29,1.0,-0.011,0.022,-0.003,
215,1,3589.984,-0.043,-0.02,0.989,0.0,0.0,0.0,14,-11,-13,2.54,-1.25,-0.29,1.0,-0.011,0.022,-0.003,
216,1,3589.994,-0.043,-0.024,0.995,0.0,0.0,0.0,14,-11,-14,2.54,-1.25,-0.29,1.0,-0.011,0.022,-0.003,
217,1,3590.004,-0.049,-0.018,0.985,0.0,0.0,0.0,15,-11,-14,2.54,-1.25,-0.29,1.0,-0.011,0.022,-0.003,
218,1,3590.014,-0.045,-0.023,0.987,0.0,0.0,0.0,15,-11,-14,2.54,-1.25,-0.29,1.0,-0.011,0.022,-0.003,
219,1,3590.024,-0.044,-0.023,0.983,0.0,0.0,0.0,15,-11,-14,2.54,-1.24,-0.29,1.0,-0.011,0.022,-0.003,
220,1,3590.034,-0.047,-0.02,0.985,0.0,0.0,0.0,14,-11,-14,2.54,-1.25,-0.29,1.0,-0.011,0.022,-0.003,
221,1,3590.044,-0.042,-0.019,0.981,0.0,0.0,0.0,14,-11,-14,2.54,-1.25,-0.29,1.0,-0.011,0.022,-0.003,
222,1,3590.054,-0.042,-0.024,0.987,0.0,0.0,0.0,14,-11,-14,2.54,-1.25,-0.29,1.0,-0.011,0.022,-0.003,
223,1,3590.064,-0.044,-0.022,0.987,0.0,0.0,0.0,14,-11,-14,2.54,-1.25,-0.29,1.0,-0.011,0.022,-0.003,
224,1,3590.074,-0.046,-0.016,0.985,0.0,0.0,0.0,14,-11,-14,2.54,-1.25,-0.29,1.0,-0.011,0.022,-0.003,
225,1,3590.084,-0.046,-0.022,0.984,0.0,0.0,0.0,14,-11,-14,2.54,-1.25,-0.29,1.0,-0.011,0.022,-0.003,
226,1,3590.094,-0.042,-0.022,0.986,0.0,0.0,0.0,15,-11,-14,2.54,-1.25,-0.29,1.0,-0.011,0.022,-0.003,
227,1,3590.104,-0.043,-0.021,0.988,0.0,0.0,0.0,14,-12,-14,2.54,-1.25,-0.29,1.0,-0.011,0.022,-0.003,
228,1,3590.114,-0.042,-0.024,0.989,0.0,0.0,0.0,14,-11,-14,2.54,-1.25,-0.29,1.0,-0.011,0.022,-0.003,
229,1,3590.124,-0.046,-0.021,0.987,0.0,0.0,0.0,14,-11,-14,2.54,-1.25,-0.29,1.0,-0.011,0.022,-0.003,
230,1,3590.134,-0.047,-0.021,0.984,0.0,0.0,0.0,14,-11,-14,2.54,-1.25,-0.29,1.0,-0.011,0.022,-0.003,
231,1,3590.144,-0.041,-0.02,0.994,0.0,0.0,0.0,14,-11,-14,2.54,-1.25,-0.29,1.0,-0.011,0.022,-0.003,
232,1,3590.154,-0.04,-0.024,0.992,0.0,0.0,0.0,15,-11,-14,2.54,-1.25,-0.29,1.0,-0.011,0.022,-0.003,
233,1,3590.164,-0.046,-0.018,0.985,0.0,0.0,0.0,15,-11,-14,2.54,-1.25,-0.29,1.0,-0.011,0.022,-0.003,
234,1,3590.174,-0.045,-0.021,0.98,0.0,0.0,0.0,14,-11,-14,2.54,-1.25,-0.29,1.0,-0.011,0.022,-0.003,
235,1,3590.184,-0.037,-0.027,0.987,0.0,0.0,0.0,14,-11,-14,2.54,-1.25,-0.29,1.0,-0.011,0.022,-0.003,
236,1,3590.194,-0.044,-0.021,0.99,0.0,0.0,0.0,14,-11,-14,2.54,-1.25,-0.29,1.0,-0.011,0.022,-0.003,
237,1,3590.204,-0.047,-0.021,0.983,0.0,0.0,0.0,15,-11,-14,2.54,-1.25,-0.29,1.0,-0.011,0.022,-0.003,
238,1,3590.214,-0.044,-0.026,0.989,0.0,0.0,0.0,14,-11,-14,2.54,-1.25,-0.29,1.0,-0.011,0.022,-0.003,
239,1,3590.224,-0.042,-0.024,0.994,0.0,0.0,0.0,14,-11,-14,2.54,-1.25,-0.29,1.0,-0.011,0.022,-0.003,
240,1,3590.234,-0.046,-0.021,0.988,0.0,0.0,0.0,14,-12,-14,2.54,-1.25,-0.29,1.0,-0.011,0.022,-0.003,
241,1,3590.244,-0.043,-0.021,0.989,0.0,0.0,0.0,14,-11,-14,2.54,-1.25,-0.29,1.0,-0.011,0.022,-0.003,
242,1,3590.254,-0.046,-0.023,0.99,0.0,0.0,0.0,14,-11,-14,2.54,-1.25,-0.29,1.0,-0.011,0.022,-0.003,
243,1,3590.264,-0.043,-0.021,0.986,0.0,0.0,0.0,15,-11,-14,2.54,-1.25,-0.29,1.0,-0.011,0.022,-0.003,
244,1,3590.274,-0.048,-0.019,0.983,0.0,0.0,0.0,14,-11,-14,2.54,-1.26,-0.29,1.0,-0.011,0.022,-0.003,
245,1,3590.284,-0.038,-0.019,0.992,0.0,0.0,0.0,14,-11,-14,2.54,-1.25,-0.29,1.0,-0.011,0.022,-0.003,
246,1,3590.294,-0.044,-0.025,0.988,0.0,0.0,0.0,14,-11,-14,2.54,-1.25,-0.29,1.0,-0.011,0.022,-0.003,
247,1,3590.304,-0.042,-0.022,0.98,0.0,0.0,0.0,14,-11,-14,2.54,-1.25,-0.29,1.0,-0.011,0.022,-0.003,
248,1,3590.314,-0.046,-0.018,0.981,0.0,0.0,0.0,14,-11,-14,2.54,-1.25,-0.29,1.0,-0.011,0.022,-0.003,
249,1,3590.324,-0.046,-0.025,0.986,0.0,0.0,0.0,15,-11,-14,2.54,-1.25,-0.29,1.0,-0.011,0.022,-0.003,
250,1,3590.334,-0.043,-0.021,0.99,0.0,0.0,0.0,14,-11,-14,2.54,-1.25,-0.29,1.0,-0.011,0.022,-0.003,
251,1,3590.344,-0.039,-0.022,0.992,0.0,0.0,0.0,15,-11,-13,2.54,-1.25,-0.29,1.0,-0.011,0.022,-0.003,
252,1,3590.354,-0.046,-0.021,0.988,0.0,0.0,0.0,15,-11,-14,2.54,-1.25,-0.29,1.0,-0.011,0.022,-0.003,
253,1,3590.364,-0.042,-0.021,0.99,0.0,0.0,0.0,14,-11,-14,2.54,-1.25,-0.29,1.0,-0.011,0.022,-0.003,
254,1,3590.374,-0.045,-0.023,0.99,0.0,0.0,0.0,14,-11,-14,2.54,-1.25,-0.29,1.0,-0.011,0.022,-0.003,
255,1,3590.384,-0.042,-0.021,0.989,0.0,0.0,0.0,14,-11,-14,2.54,-1.25,-0.29,1.0,-0.011,0.022,-0.003,
256,1,3590.394,-0.047,-0.021,0.984,0.0,0.0,0.0,15,-11,-13,2.53,-1.25,-0.29,1.0,-0.011,0.022,-0.003,
257,1,3590.404,-0.045,-0.021,0.982,0.0,0.0,0.0,15,-11,-14,2.54,-1.25,-0.29,1.0,-0.011,0.022,-0.003,
258,1,3590.414,-0.039,-0.024,0.99,0.0,0.0,0.0,15,-11,-14,2.54,-1.25,-0.29,1.0,-0.011,0.022,-0.003,
259,1,3590.424,-0.043,-0.023,0.986,0.0,0.0,0.0,15,-11,-14,2.54,-1.25,-0.29,1.0,-0.011,0.022,-0.003,
260,1,3590.434,-0.043,-0.017,0.985,0.0,0.0,0.0,14,-11,-14,2.54,-1.25,-0.29,1.0,-0.011,0.022,-0.003,
261,1,3590.444,-0.046,-0.021,0.99,0.0,0.0,0.0,14,-11,-14,2.54,-1.25,-0.29,1.0,-0.011,0.022,-0.003,
262,1,3590.454,-0.041,-0.023,0.99,0.0,0.0,0.0,14,-11,-14,2.54,-1.25,-0.29,1.0,-0.011,0.022,-0.003,
263,1,3590.464,-0.045,-0.023,0.983,0.0,0.0,0.0,14,-11,-14,2.54,-1.25,-0.29,1.0,-0.011,0.022,-0.003,
264,1,3590.474,-0.052,-0.02,0.985,0.0,0.0,0.0,14,-11,-14,2.54,-1.25,-0.29,1.0,-0.011,0.022,-0.003,
265,1,3590.484,-0.043,-0.023,0.99,0.0,0.0,0.0,14,-11,-14,2.54,-1.25,-0.29,1.0,-0.011,0.022,-0.003,
266,1,3590.494,-0.048,-0.026,0.989,0.0,0.0,0.0,14,-11,-14,2.54,-1.25,-0.29,1.0,-0.011,0.022,-0.003,
267,1,3590.504,-0.043,-0.022,0.986,0.0,0.0,0.0,14,-12,-14,2.54,-1.25,-0.29,1.0,-0.011,0.022,-0.003,
268,1,3590.514,-0.046,-0.02,0.987,0.0,0.0,0.0,14,-12,-14,2.54,-1.25,-0.29,1.0,-0.011,0.022,-0.003,
269,1,3590.524,-0.045,-0.021,0.985,0.0,0.0,0.0,14,-11,-14,2.54,-1.25,-0.29,1.0,-0.011,0.022,-0.003,
270,1,3590.534,-0.044,-0.025,0.991,0.0,0.0,0.0,14,-11,-14,2.54,-1.25,-0.29,1.0,-0.011,0.022,-0.003,
271,1,3590.544,-0.046,-0.02,0.986,0.0,0.0,0.0,14,-11,-14,2.54,-1.25,-0.29,1.0,-0.011,0.022,-0.003,
272,1,3590.554,-0.045,-0.017,0.987,0.0,0.0,0.0,14,-12,-14,2.54,-1.26,-0.29,1.0,-0.011,0.022,-0.003,
273,1,3590.564,-0.04,-0.024,0.99,0.0,0.0,0.0,15,-11,-14,2.54,-1.25,-0.29,1.0,-0.011,0.022,-0.003,
274,1,3590.574,-0.04,-0.022,0.99,0.0,0.0,0.0,14,-12,-14,2.54,-1.25,-0.29,1.0,-0.011,0.022,-0.003,
275,1,3590.584,-0.046,-0.021,0.991,0.0,0.0,0.0,15,-11,-14,2.54,-1.26,-0.29,1.0,-0.011,0.022,-0.003,
276,1,3590.594,-0.048,-0.021,0.988,0.0,0.0,0.0,14,-12,-14,2.54,-1.25,-0.29,1.0,-0.011,0.022,-0.003,
277,1,3590.604,-0.04,-0.025,0.99,0.0,0.0,0.0,15,-12,-14,2.54,-1.25,-0.29,1.0,-0.011,0.022,-0.003,
278,1,3590.614,-0.043,-0.021,0.984,0.0,0.0,0.0,15,-12,-14,2.54,-1.26,-0.29,1.0,-0.011,0.022,-0.003,
279,1,3590.624,-0.044,-0.021,0.987,0.0,0.0,0.0,14,-12,-14,2.54,-1.26,-0.29,1.0,-0.011,0.022,-0.003,
280,1,3590.634,-0.045,-0.022,0.985,0.0,0.0,0.0,15,-11,-14,2.54,-1.26,-0.29,1.0,-0.011,0.022,-0.003,
281,1,3590.644,-0.04,-0.023,0.99,0.0,0.0,0.0,15,-11,-14,2.54,-1.26,-0.29,1.0,-0.011,0.022,-0.003,
282,1,3590.654,-0.043,-0.023,0.985,0.0,0.0,0.0,15,-11,-14,2.54,-1.26,-0.29,1.0,-0.011,0.022,-0.003,
283,1,3590.664,-0.043,-0.021,0.985,0.0,0.0,0.0,14,-11,-14,2.54,-1.26,-0.29,1.0,-0.011,0.022,-0.003,
284,1,3590.674,-0.045,-0.02,0.984,0.0,0.0,0.0,15,-11,-14,2.54,-1.26,-0.29,1.0,-0.011,0.022,-0.003,
285,1,3590.684,-0.044,-0.024,0.988,0.0,0.0,0.0,14,-11,-14,2.54,-1.26,-0.29,1.0,-0.011,0.022,-0.003,
286,1,3590.694,-0.044,-0.024,0.983,0.0,0.0,0.0,15,-11,-14,2.54,-1.26,-0.29,1.0,-0.011,0.022,-0.003,
287,1,3590.704,-0.046,-0.023,0.983,0.0,0.0,0.0,14,-11,-14,2.54,-1.26,-0.29,1.0,-0.011,0.022,-0.003,
288,1,3590.714,-0.048,-0.017,0.989,0.0,0.0,0.0,14,-11,-14,2.54,-1.26,-0.29,1.0,-0.011,0.022,-0.003,
289,1,3590.724,-0.046,-0.025,0.991,0.0,0.0,0.0,15,-12,-14,2.54,-1.26,-0.29,1.0,-0.011,0.022,-0.003,
290,1,3590.734,-0.044,-0.021,0.984,0.0,0.0,0.0,14,-11,-14,2.54,-1.26,-0.29,1.0,-0.011,0.022,-0.003,
291,1,3590.744,-0.045,-0.02,0.983,0.0,0.0,0.0,15,-11,-14,2.54,-1.26,-0.29,1.0,-0.011,0.022,-0.003,
292,1,3590.754,-0.04,-0.019,0.983,0.0,0.0,0.0,15,-11,-14,2.54,-1.26,-0.29,1.0,-0.011,0.022,-0.003,
293,1,3590.764,-0.045,-0.025,0.99,0.0,0.0,0.0,15,-12,-14,2.54,-1.26,-0.29,1.0,-0.011,0.022,-0.003,
294,1,3590.774,-0.049,-0.015,0.989,0.0,0.0,0.0,14,-11,-14,2.54,-1.26,-0.29,1.0,-0.011,0.022,-0.003,
295,1,3590.784,-0.044,-0.021,0.983,0.0,0.0,0.0,14,-11,-14,2.54,-1.26,-0.29,1.0,-0.011,0.022,-0.003,
296,1,3590.794,-0.041,-0.022,0.983,0.0,0.0,0.0,15,-11,-14,2.54,-1.26,-0.29,1.0,-0.011,0.022,-0.003,
297,1,3590.804,-0.041,-0.025,0.99,0.0,0.0,0.0,15,-11,-14,2.54,-1.25,-0.29,1.0,-0.011,0.022,-0.003,
298,1,3590.814,-0.044,-0.023,0.987,0.0,0.0,0.0,15,-11,-14,2.54,-1.26,-0.29,1.0,-0.011,0.022,-0.003,
299,1,3590.824,-0.046,-0.021,0.989,0.0,0.0,0.0,14,-11,-14,2.54,-1.26,-0.29,1.0,-0.011,0.022,-0.003,
300,1,3590.834,-0.042,-0.024,0.988,0.0,0.0,0.0,14,-11,-14,2.54,-1.25,-0.29,1.0,-0.011,0.022,-0.003,
301,1,3590.844,-0.04,-0.021,0.989,0.0,0.0,0.0,14,-12,-14,2.54,-1.25,-0.29,1.0,-0.011,0.022,-0.003,
302,1,3590.854,-0.043,-0.023,0.99,0.0,0.0,0.0,14,-11,-14,2.54,-1.25,-0.29,1.0,-0.011,0.022,-0.003,
303,1,3590.864,-0.045,-0.021,0.984,0.0,0.0,0.0,14,-12,-14,2.54,-1.25,-0.29,1.0,-0.011,0.022,-0.003,
304,1,3590.874,-0.044,-0.023,0.987,0.0,0.0,0.0,14,-11,-14,2.54,-1.25,-0.29,1.0,-0.011,0.022,-0.003,
305,1,3590.884,-0.044,-0.021,0.986,0.0,0.0,0.0,14,-11,-14,2.54,-1.26,-0.29,1.0,-0.011,0.022,-0.003,
306,1,3590.894,-0.043,-0.022,0.993,0.0,0.0,0.0,14,-11,-14,2.54,-1.25,-0.29,1.0,-0.011,0.022,-0.003,
307,1,3590.904,-0.046,-0.022,0.986,0.0,0.0,0.0,14,-11,-14,2.54,-1.26,-0.29,1.0,-0.011,0.022,-0.003,
308,1,3590.914,-0.046,-0.018,0.978,0.0,0.0,0.0,14,-11,-14,2.54,-1.26,-0.29,1.0,-0.011,0.022,-0.003,
309,1,3590.924,-0.048,-0.024,0.983,0.0,0.0,0.0,14,-11,-14,2.54,-1.25,-0.29,1.0,-0.011,0.022,-0.003,
310,1,3590.934,-0.046,-0.021,0.987,0.0,0.0,0.0,14,-11,-14,2.54,-1.26,-0.29,1.0,-0.011,0.022,-0.003,
311,1,3590.944,-0.043,-0.019,0.982,0.0,0.0,0.0,14,-11,-14,2.54,-1.26,-0.29,1.0,-0.011,0.022,-0.003,
312,1,3590.954,-0.043,-0.021,0.987,0.0,0.0,0.0,14,-11,-13,2.54,-1.25,-0.29,1.0,-0.011,0.022,-0.003,
313,1,3590.964,-0.041,-0.02,0.991,0.0,0.0,0.0,14,-12,-14,2.54,-1.25,-0.29,1.0,-0.011,0.022,-0.003,
314,1,3590.974,-0.041,-0.02,0.99,0.0,0.0,0.0,14,-11,-14,2.54,-1.25,-0.29,1.0,-0.011,0.022,-0.003,
315,1,3590.984,-0.05,-0.016,0.986,0.0,0.0,0.0,14,-11,-14,2.54,-1.25,-0.29,1.0,-0.011,0.022,-0.003,
316,1,3590.994,-0.045,-0.028,0.985,0.0,0.0,0.0,15,-11,-14,2.54,-1.25,-0.29,1.0,-0.011,0.022,-0.003,
317,1,3591.004,-0.046,-0.021,0.986,0.0,0.0,0.0,15,-11,-14,2.54,-1.25,-0.29,1.0,-0.011,0.022,-0.003,
318,1,3591.014,-0.045,-0.02,0.983,0.0,0.0,0.0,14,-11,-14,2.54,-1.25,-0.29,1.0,-0.011,0.022,-0.003,
319,1,3591.024,-0.04,-0.021,0.983,0.0,0.0,0.0,15,-11,-14,2.54,-1.25,-0.29,1.0,-0.011,0.022,-0.003,
320,1,3591.034,-0.04,-0.024,0.989,0.0,0.0,0.0,14,-11,-14,2.54,-1.25,-0.29,1.0,-0.011,0.022,-0.003,
321,1,3591.044,-0.046,-0.022,0.986,0.0,0.0,0.0,14,-11,-14,2.54,-1.25,-0.29,1.0,-0.011,0.022,-0.003,
322,1,3591.054,-0.045,-0.018,0.981,0.0,0.0,0.0,14,-11,-13,2.54,-1.25,-0.29,1.0,-0.011,0.022,-0.003,
323,1,3591.064,-0.044,-0.024,0.99,0.0,0.0,0.0,14,-11,-14,2.54,-1.25,-0.29,1.0,-0.011,0.022,-0.003,
324,1,3591.074,-0.041,-0.024,0.988,0.0,0.0,0.0,14,-11,-14,2.54,-1.25,-0.29,1.0,-0.011,0.022,-0.003,
325,1,3591.084,-0.041,-0.021,0.989,0.0,0.0,0.0,14,-11,-14,2.54,-1.25,-0.29,1.0,-0.011,0.022,-0.003,
326,1,3591.094,-0.045,-0.02,0.992,0.0,0.0,0.0,14,-12,-14,2.54,-1.25,-0.29,1.0,-0.011,0.022,-0.003,
327,1,3591.104,-0.048,-0.019,0.987,0.0,0.0,0.0,14,-12,-14,2.54,-1.25,-0.29,1.0,-0.011,0.022,-0.003,
328,1,3591.114,-0.043,-0.022,0.993,0.0,0.0,0.0,14,-11,-14,2.54,-1.25,-0.29,1.0,-0.011,0.022,-0.003,
329,1,3591.124,-0.042,-0.019,0.984,0.0,0.0,0.0,14,-11,-14,2.54,-1.25,-0.29,1.0,-0.011,0.022,-0.003,
330,1,3591.134,-0.043,-0.024,0.989,0.0,0.0,0.0,14,-12,-14,2.54,-1.25,-0.29,1.0,-0.011,0.022,-0.003,
331,1,3591.144,-0.045,-0.022,0.988,0.0,0.0,0.0,14,-11,-14,2.54,-1.25,-0.29,1.0,-0.011,0.022,-0.003,
332,1,3591.154,-0.046,-0.018,0.986,0.0,0.0,0.0,14,-11,-13,2.54,-1.25,-0.29,1.0,-0.011,0.022,-0.003,
333,1,3591.164,-0.044,-0.022,0.986,0.0,0.0,0.0,15,-11,-14,2.54,-1.25,-0.29,1.0,-0.011,0.022,-0.003,
334,1,3591.174,-0.044,-0.02,0.983,0.0,0.0,0.0,15,-11,-13,2.54,-1.25,-0.29,1.0,-0.011,0.022,-0.003,
335,1,3591.184,-0.038,-0.02,0.99,0.0,0.0,0.0,14,-11,-14,2.54,-1.25,-0.29,1.0,-0.011,0.022,-0.003,
336,1,3591.194,-0.043,-0.022,0.988,0.0,0.0,0.0,15,-11,-14,2.54,-1.25,-0.29,1.0,-0.011,0.022,-0.003,
337,1,3591.204,-0.044,-0.025,0.988,0.0,0.0,0.0,15,-11,-14,2.54,-1.25,-0.29,1.0,-0.011,0.022,-0.003,
338,1,3591.214,-0.049,-0.016,0.988,0.0,0.0,0.0,15,-11,-14,2.54,-1.25,-0.29,1.0,-0.011,0.022,-0.003,
339,1,3591.224,-0.044,-0.023,0.986,0.0,0.0,0.0,15,-12,-14,2.54,-1.25,-0.29,1.0,-0.011,0.022,-0.003,
340,1,3591.235,-0.045,-0.024,0.993,0.0,0.0,0.0,14,-11,-14,2.54,-1.25,-0.29,1.0,-0.011,0.022,-0.003,
341,1,3591.245,-0.044,-0.024,0.98,0.0,0.0,0.0,14,-12,-13,2.54,-1.25,-0.29,1.0,-0.011,0.022,-0.003,
342,1,3591.255,-0.042,-0.021,0.985,0.0,0.0,0.0,15,-11,-13,2.54,-1.25,-0.29,1.0,-0.011,0.022,-0.003,
343,1,3591.265,-0.043,-0.024,0.99,0.0,0.0,0.0,14,-11,-13,2.54,-1.25,-0.29,1.0,-0.011,0.022,-0.003,
344,1,3591.275,-0.043,-0.02,0.986,0.0,0.0,0.0,15,-11,-13,2.54,-1.25,-0.29,1.0,-0.011,0.022,-0.003,
345,1,3591.285,-0.046,-0.02,0.99,0.0,0.0,0.0,14,-11,-14,2.54,-1.25,-0.29,1.0,-0.011,0.022,-0.003,
346,1,3591.295,-0.046,-0.023,0.985,0.0,0.0,0.0,14,-11,-13,2.54,-1.25,-0.29,1.0,-0.011,0.022,-0.003,
347,1,3591.305,-0.044,-0.023,0.988,0.0,0.0,0.0,15,-11,-14,2.54,-1.25,-0.29,1.0,-0.011,0.022,-0.003,
348,1,3591.315,-0.046,-0.017,0.985,0.0,0.0,0.0,14,-11,-14,2.54,-1.25,-0.29,1.0,-0.011,0.022,-0.003,
349,1,3591.325,-0.047,-0.026,0.983,0.0,0.0,0.0,14,-11,-14,2.55,-1.25,-0.29,1.0,-0.011,0.022,-0.003,
350,1,3591.335,-0.044,-0.022,0.99,0.0,0.0,0.0,14,-11,-14,2.55,-1.25,-0.29,1.0,-0.011,0.022,-0.003,
351,1,3591.345,-0.041,-0.021,0.987,0.0,0.0,0.0,14,-12,-14,2.55,-1.25,-0.29,1.0,-0.011,0.022,-0.003,
352,1,3591.355,-0.043,-0.02,0.987,0.0,0.0,0.0,14,-11,-14,2.54,-1.25,-0.29,1.0,-0.011,0.022,-0.003,
353,1,3591.365,-0.042,-0.026,0.989,0.0,0.0,0.0,14,-12,-14,2.54,-1.25,-0.29,1.0,-0.011,0.022,-0.003,
354,1,3591.375,-0.045,-0.023,0.988,0.0,0.0,0.0,15,-11,-14,2.54,-1.25,-0.29,1.0,-0.011,0.022,-0.003,
355,1,3591.385,-0.046,-0.018,0.98,0.0,0.0,0.0,15,-11,-14,2.54,-1.26,-0.29,1.0,-0.011,0.022,-0.003,
356,1,3591.395,-0.042,-0.024,0.987,0.0,0.0,0.0,15,-12,-14,2.55,-1.25,-0.29,1.0,-0.011,0.022,-0.003,
357,1,3591.405,-0.049,-0.022,0.985,0.0,0.0,0.0,14,-11,-14,2.54,-1.26,-0.29,1.0,-0.011,0.022,-0.003,
358,1,3591.415,-0.046,-0.021,0.99,0.0,0.0,0.0,14,-11,-14,2.54,-1.26,-0.29,1.0,-0.011,0.022,-0.003,
359,1,3591.425,-0.045,-0.021,0.991,0.0,0.0,0.0,14,-11,-14,2.54,-1.26,-0.29,1.0,-0.011,0.022,-0.003,
360,1,3591.435,-0.044,-0.021,0.99,0.0,0.0,0.0,14,-11,-14,2.54,-1.26,-0.29,1.0,-0.011,0.022,-0.003,
361,1,3591.445,-0.049,-0.022,0.985,0.0,0.0,0.0,14,-11,-13,2.54,-1.26,-0.29,1.0,-0.011,0.022,-0.003,
362,1,3591.455,-0.045,-0.019,0.993,0.0,0.0,0.0,14,-11,-14,2.54,-1.26,-0.29,1.0,-0.011,0.022,-0.003,
363,1,3591.465,-0.041,-0.026,0.99,0.0,0.0,0.0,14,-11,-14,2.55,-1.25,-0.29,1.0,-0.011,0.022,-0.003,
364,1,3591.475,-0.045,-0.017,0.984,0.0,0.0,0.0,14,-11,-14,2.54,-1.25,-0.29,1.0,-0.011,0.022,-0.003,
365,1,3591.485,-0.043,-0.019,0.984,0.0,0.0,0.0,14,-11,-14,2.55,-1.25,-0.29,1.0,-0.011,0.022,-0.003,
366,1,3591.495,-0.044,-0.024,0.99,0.0,0.0,0.0,14,-11,-14,2.55,-1.25,-0.29,1.0,-0.011,0.022,-0.003,
367,1,3591.505,-0.045,-0.023,0.985,0.0,0.0,0.0,15,-11,-14,2.54,-1.25,-0.29,1.0,-0.011,0.022,-0.003,
368,1,3591.515,-0.045,-0.018,0.988,0.0,0.0,0.0,15,-11,-14,2.54,-1.26,-0.29,1.0,-0.011,0.022,-0.003,
369,1,3591.525,-0.041,-0.023,0.988,0.0,0.0,0.0,14,-11,-14,2.55,-1.25,-0.29,1.0,-0.011,0.022,-0.003,
370,1,3591.535,-0.045,-0.024,0.989,0.0,0.0,0.0,15,-11,-14,2.54,-1.25,-0.29,1.0,-0.011,0.022,-0.003,
371,1,3591.545,-0.047,-0.018,0.991,0.0,0.0,0.0,14,-11,-14,2.54,-1.26,-0.29,1.0,-0.011,0.022,-0.003,
372,1,3591.555,-0.046,-0.02,0.989,0.0,0.0,0.0,14,-11,-13,2.54,-1.25,-0.29,1.0,-0.011,0.022,-0.003,
373,1,3591.565,-0.041,-0.027,0.99,0.0,0.0,0.0,14,-11,-14,2.54,-1.25,-0.29,1.0,-0.011,0.022,-0.003,
374,1,3591.575,-0.046,-0.021,0.986,0.0,0.0,0.0,14,-11,-14,2.54,-1.25,-0.29,1.0,-0.011,0.022,-0.003,
375,1,3591.585,-0.047,-0.019,0.985,0.0,0.0,0.0,14,-11,-14,2.54,-1.25,-0.29,1.0,-0.011,0.022,-0.003,
376,1,3591.595,-0.043,-0.023,0.99,0.0,0.0,0.0,14,-11,-14,2.54,-1.25,-0.29,1.0,-0.011,0.022,-0.003,
377,1,3591.605,-0.042,-0.02,0.988,0.0,0.0,0.0,15,-12,-14,2.54,-1.25,-0.29,1.0,-0.011,0.022,-0.003,
378,1,3591.615,-0.045,-0.018,0.988,0.0,0.0,0.0,15,-11,-14,2.54,-1.25,-0.29,1.0,-0.011,0.022,-0.003,
379,1,3591.625,-0.048,-0.021,0.981,0.0,0.0,0.0,14,-11,-14,2.54,-1.25,-0.29,1.0,-0.011,0.022,-0.003,
380,1,3591.635,-0.042,-0.025,0.987,0.0,0.0,0.0,15,-11,-14,2.54,-1.25,-0.29,1.0,-0.011,0.022,-0.003,
381,1,3591.645,-0.043,-0.024,0.986,0.0,0.0,0.0,14,-11,-14,2.55,-1.25,-0.29,1.0,-0.011,0.022,-0.003,
382,1,3591.655,-0.044,-0.021,0.992,0.0,0.0,0.0,14,-11,-14,2.54,-1.25,-0.29,1.0,-0.011,0.022,-0.003,
383,1,3591.665,-0.046,-0.023,0.987,0.0,0.0,0.0,14,-11,-14,2.55,-1.25,-0.29,1.0,-0.011,0.022,-0.003,
384,1,3591.675,-0.047,-0.02,0.987,0.0,0.0,0.0,14,-11,-13,2.55,-1.25,-0.29,1.0,-0.011,0.022,-0.003,
385,1,3591.685,-0.039,-0.021,0.992,0.0,0.0,0.0,14,-11,-14,2.55,-1.25,-0.29,1.0,-0.011,0.022,-0.003,
386,1,3591.695,-0.041,-0.023,0.987,0.0,0.0,0.0,14,-11,-14,2.54,-1.25,-0.29,1.0,-0.011,0.022,-0.003,
387,1,3591.705,-0.047,-0.019,0.989,0.0,0.0,0.0,14,-11,-14,2.54,-1.25,-0.29,1.0,-0.011,0.022,-0.003,
388,1,3591.715,-0.044,-0.019,0.99,0.0,0.0,0.0,15,-11,-14,2.54,-1.25,-0.29,1.0,-0.011,0.022,-0.003,
389,1,3591.725,-0.042,-0.023,0.989,0.0,0.0,0.0,14,-11,-14,2.54,-1.25,-0.29,1.0,-0.011,0.022,-0.003,
390,1,3591.735,-0.045,-0.023,0.984,0.0,0.0,0.0,14,-11,-14,2.54,-1.25,-0.29,1.0,-0.011,0.022,-0.003,
391,1,3591.745,-0.046,-0.02,0.982,0.0,0.0,0.0,14,-11,-14,2.54,-1.25,-0.29,1.0,-0.011,0.022,-0.003,
392,1,3591.755,-0.043,-0.026,0.987,0.0,0.0,0.0,14,-11,-14,2.54,-1.25,-0.29,1.0,-0.011,0.022,-0.003,
393,1,3591.765,-0.043,-0.022,0.995,0.0,0.0,0.0,14,-11,-14,2.54,-1.25,-0.29,1.0,-0.011,0.022,-0.003,
394,1,3591.775,-0.047,-0.021,0.989,0.0,0.0,0.0,14,-12,-14,2.54,-1.25,-0.29,1.0,-0.011,0.022,-0.003,
395,1,3591.785,-0.044,-0.021,0.988,0.0,0.0,0.0,15,-12,-14,2.54,-1.25,-0.29,1.0,-0.011,0.022,-0.003,
396,1,3591.795,-0.042,-0.025,0.988,0.0,0.0,0.0,15,-11,-14,2.54,-1.25,-0.29,1.0,-0.011,0.022,-0.003,
397,1,3591.805,-0.048,-0.023,0.992,0.0,0.0,0.0,14,-11,-14,2.54,-1.25,-0.29,1.0,-0.011,0.022,-0.003,
398,1,3591.815,-0.043,-0.022,0.99,0.0,0.0,0.0,15,-11,-13,2.54,-1.25,-0.29,1.0,-0.011,0.022,-0.003,
399,1,3591.825,-0.043,-0.021,0.99,0.0,0.0,0.0,15,-11,-14,2.54,-1.25,-0.29,1.0,-0.011,0.022,-0.003,
400,1,3591.835,-0.041,-0.024,0.987,0.0,0.0,0.0,14,-11,-14,2.54,-1.25,-0.29,1.0,-0.011,0.022,-0.003,
401,1,3591.845,-0.042,-0.019,0.982,0.0,0.0,0.0,14,-11,-14,2.54,-1.25,-0.29,1.0,-0.011,0.022,-0.003,
402,1,3591.855,-0.044,-0.021,0.987,0.0,0.0,0.0,14,-11,-14,2.54,-1.25,-0.29,1.0,-0.011,0.022,-0.003,
403,1,3591.865,-0.045,-0.021,0.982,0.0,0.0,0.0,14,-11,-14,2.54,-1.25,-0.29,1.0,-0.011,0.022,-0.003,
404,1,3591.875,-0.045,-0.021,0.987,0.0,0.0,0.0,14,-11,-14,2.54,-1.25,-0.29,1.0,-0.011,0.022,-0.003,
405,1,3591.885,-0.044,-0.021,0.989,0.0,0.0,0.0,15,-12,-14,2.54,-1.25,-0.29,1.0,-0.011,0.022,-0.003,
406,1,3591.895,-0.042,-0.023,0.985,0.0,0.0,0.0,15,-11,-14,2.54,-1.25,-0.29,1.0,-0.011,0.022,-0.003,
407,1,3591.905,-0.045,-0.023,0.992,0.0,0.0,0.0,15,-11,-14,2.54,-1.25,-0.29,1.0,-0.011,0.022,-0.003,
408,1,3591.915,-0.042,-0.022,0.99,0.0,0.0,0.0,14,-12,-14,2.54,-1.25,-0.29,1.0,-0.011,0.022,-0.003,
409,1,3591.925,-0.041,-0.021,0.984,0.0,0.0,0.0,15,-11,-14,2.54,-1.25,-0.29,1.0,-0.011,0.022,-0.003,
410,1,3591.935,-0.043,-0.019,0.986,0.0,0.0,0.0,14,-11,-14,2.54,-1.25,-0.29,1.0,-0.011,0.022,-0.003,
411,1,3591.945,-0.047,-0.023,0.991,0.0,0.0,0.0,14,-11,-14,2.54,-1.25,-0.29,1.0,-0.011,0.022,-0.003,
412,1,3591.955,-0.042,-0.022,0.982,0.0,0.0,0.0,14,-11,-14,2.54,-1.25,-0.29,1.0,-0.011,0.022,-0.003,
413,1,3591.965,-0.042,-0.021,0.989,0.0,0.0,0.0,14,-11,-14,2.54,-1.25,-0.29,1.0,-0.011,0.022,-0.003,
414,1,3591.975,-0.048,-0.02,0.985,0.0,0.0,0.0,14,-11,-14,2.54,-1.25,-0.29,1.0,-0.011,0.022,-0.003,
415,1,3591.985,-0.044,-0.023,0.982,0.0,0.0,0.0,14,-11,-14,2.54,-1.25,-0.29,1.0,-0.011,0.022,-0.003,
416,1,3591.995,-0.043,-0.022,0.989,0.0,0.0,0.0,14,-12,-14,2.54,-1.25,-0.29,1.0,-0.011,0.022,-0.003,
417,1,3592.005,-0.046,-0.022,0.986,0.0,0.0,0.0,14,-11,-13,2.54,-1.25,-0.29,1.0,-0.011,0.022,-0.003,
418,1,3592.015,-0.046,-0.014,0.987,0.0,0.0,0.0,15,-12,-14,2.54,-1.25,-0.29,1.0,-0.011,0.022,-0.003,
419,1,3592.025,-0.041,-0.024,0.991,0.0,0.0,0.0,14,-12,-14,2.54,-1.25,-0.29,1.0,-0.011,0.022,-0.003,
420,1,3592.035,-0.044,-0.021,0.987,0.0,0.0,0.0,14,-12,-14,2.54,-1.25,-0.29,1.0,-0.011,0.022,-0.003,
421,1,3592.045,-0.043,-0.02,0.989,0.0,0.0,0.0,15,-12,-13,2.54,-1.25,-0.29,1.0,-0.011,0.022,-0.003,
422,1,3592.055,-0.042,-0.022,0.986,0.0,0.0,0.0,14,-12,-14,2.54,-1.25,-0.29,1.0,-0.011,0.022,-0.003,
423,1,3592.065,-0.043,-0.024,0.986,0.0,0.0,0.0,14,-12,-13,2.54,-1.25,-0.29,1.0,-0.011,0.022,-0.003,
424,1,3592.075,-0.045,-0.025,0.99,0.0,0.0,0.0,15,-12,-13,2.54,-1.25,-0.29,1.0,-0.011,0.022,-0.003,
425,1,3592.085,-0.043,-0.021,0.983,0.0,0.0,0.0,15,-12,-13,2.54,-1.25,-0.29,1.0,-0.011,0.022,-0.003,
426,1,3592.095,-0.045,-0.021,0.989,0.0,0.0,0.0,14,-11,-14,2.54,-1.25,-0.29,1.0,-0.011,0.022,-0.003,
427,1,3592.105,-0.043,-0.029,0.988,0.0,0.0,0.0,14,-11,-14,2.54,-1.25,-0.29,1.0,-0.011,0.022,-0.003,
428,1,3592.115,-0.04,-0.025,0.991,0.0,0.0,0.0,14,-11,-14,2.54,-1.25,-0.29,1.0,-0.011,0.022,-0.003,
429,1,3592.125,-0.049,-0.016,0.983,0.0,0.0,0.0,14,-11,-14,2.54,-1.25,-0.29,1.0,-0.011,0.022,-0.003,
430,1,3592.135,-0.045,-0.022,0.989,0.0,0.0,0.0,14,-11,-14,2.54,-1.25,-0.29,1.0,-0.011,0.022,-0.003,
431,1,3592.145,-0.043,-0.023,0.991,0.0,0.0,0.0,14,-12,-14,2.54,-1.25,-0.29,1.0,-0.011,0.022,-0.003,
432,1,3592.155,-0.041,-0.022,0.989,0.0,0.0,0.0,14,-11,-14,2.54,-1.25,-0.29,1.0,-0.011,0.022,-0.003,
433,1,3592.165,-0.045,-0.021,0.99,0.0,0.0,0.0,14,-11,-14,2.54,-1.25,-0.29,1.0,-0.011,0.022,-0.003,
434,1,3592.175,-0.043,-0.02,0.986,0.0,0.0,0.0,14,-11,-14,2.54,-1.25,-0.29,1.0,-0.011,0.022,-0.003,
435,1,3592.185,-0.04,-0.021,0.99,0.0,0.0,0.0,14,-11,-14,2.54,-1.25,-0.29,1.0,-0.011,0.022,-0.003,
436,1,3592.195,-0.043,-0.021,0.983,0.0,0.0,0.0,15,-11,-14,2.54,-1.25,-0.29,1.0,-0.011,0.022,-0.003,
437,1,3592.205,-0.045,-0.02,0.987,0.0,0.0,0.0,14,-11,-14,2.54,-1.25,-0.29,1.0,-0.011,0.022,-0.003,
438,1,3592.215,-0.046,-0.021,0.987,0.0,0.0,0.0,14,-11,-13,2.54,-1.25,-0.29,1.0,-0.011,0.022,-0.003,
439,1,3592.225,-0.044,-0.022,0.988,0.0,0.0,0.0,14,-11,-14,2.54,-1.25,-0.29,1.0,-0.011,0.022,-0.003,
440,1,3592.235,-0.044,-0.024,0.988,0.0,0.0,0.0,14,-11,-14,2.54,-1.25,-0.29,1.0,-0.011,0.022,-0.003,
441,1,3592.245,-0.047,-0.015,0.985,0.0,0.0,0.0,15,-11,-14,2.54,-1.25,-0.29,1.0,-0.011,0.022,-0.003,
442,1,3592.255,-0.039,-0.024,0.99,0.0,0.0,0.0,15,-11,-13,2.54,-1.25,-0.29,1.0,-0.011,0.022,-0.003,
443,1,3592.265,-0.043,-0.022,0.99,0.0,0.0,0.0,15,-11,-14,2.54,-1.25,-0.29,1.0,-0.011,0.022,-0.003,
444,1,3592.275,-0.049,-0.022,0.982,0.0,0.0,0.0,14,-11,-13,2.54,-1.25,-0.29,1.0,-0.011,0.022,-0.003,
445,1,3592.285,-0.048,-0.017,0.981,0.0,0.0,0.0,14,-11,-13,2.54,-1.25,-0.29,1.0,-0.011,0.022,-0.003,
446,1,3592.295,-0.041,-0.022,0.991,0.0,0.0,0.0,14,-11,-14,2.54,-1.25,-0.29,1.0,-0.011,0.022,-0.003,
447,1,3592.305,-0.037,-0.021,0.996,0.0,0.0,0.0,14,-11,-14,2.54,-1.25,-0.29,1.0,-0.011,0.022,-0.003,
448,1,3592.315,-0.041,-0.021,0.989,0.0,0.0,0.0,14,-11,-14,2.54,-1.25,-0.29,1.0,-0.011,0.022,-0.003,
449,1,3592.325,-0.047,-0.018,0.981,0.0,0.0,0.0,14,-11,-13,2.54,-1.25,-0.29,1.0,-0.011,0.022,-0.003,
450,1,3592.335,-0.043,-0.024,0.984,0.0,0.0,0.0,14,-11,-13,2.54,-1.25,-0.29,1.0,-0.011,0.022,-0.003,
451,1,3592.345,-0.044,-0.022,0.988,0.0,0.0,0.0,14,-11,-14,2.55,-1.25,-0.29,1.0,-0.011,0.022,-0.003,
452,1,3592.355,-0.046,-0.023,0.989,0.0,0.0,0.0,14,-11,-14,2.54,-1.25,-0.29,1.0,-0.011,0.022,-0.003,
453,1,3592.365,-0.043,-0.017,0.988,0.0,0.0,0.0,14,-12,-14,2.54,-1.25,-0.29,1.0,-0.011,0.022,-0.003,
454,1,3592.375,-0.044,-0.025,0.992,0.0,0.0,0.0,14,-11,-14,2.54,-1.25,-0.29,1.0,-0.011,0.022,-0.003,
455,1,3592.385,-0.045,-0.02,0.99,0.0,0.0,0.0,14,-11,-14,2.55,-1.25,-0.29,1.0,-0.011,0.022,-0.003,
456,1,3592.395,-0.039,-0.021,0.988,0.0,0.0,0.0,14,-11,-14,2.54,-1.25,-0.29,1.0,-0.011,0.022,-0.003,
457,1,3592.405,-0.046,-0.02,0.981,0.0,0.0,0.0,15,-11,-14,2.54,-1.25,-0.29,1.0,-0.011,0.022,-0.003,
458,1,3592.415,-0.043,-0.026,0.989,0.0,0.0,0.0,14,-11,-14,2.54,-1.25,-0.29,1.0,-0.011,0.022,-0.003,
459,1,3592.425,-0.045,-0.022,0.987,0.0,0.0,0.0,14,-12,-14,2.54,-1.25,-0.29,1.0,-0.011,0.022,-0.003,
460,1,3592.435,-0.045,-0.021,0.984,0.0,0.0,0.0,14,-12,-14,2.54,-1.25,-0.29,1.0,-0.011,0.022,-0.003,
461,1,3592.445,-0.046,-0.019,0.982,0.0,0.0,0.0,14,-11,-14,2.54,-1.25,-0.29,1.0,-0.011,0.022,-0.003,
462,1,3592.455,-0.042,-0.02,0.99,0.0,0.0,0.0,15,-11,-14,2.54,-1.25,-0.29,1.0,-0.011,0.022,-0.003,
463,1,3592.465,-0.045,-0.024,0.986,0.0,0.0,0.0,14,-11,-14,2.54,-1.25,-0.29,1.0,-0.011,0.022,-0.003,
464,1,3592.475,-0.043,-0.02,0.986,0.0,0.0,0.0,14,-11,-14,2.54,-1.25,-0.29,1.0,-0.011,0.022,-0.003,
465,1,3592.485,-0.045,-0.02,0.987,0.0,0.0,0.0,14,-11,-14,2.54,-1.25,-0.29,1.0,-0.011,0.022,-0.003,
466,1,3592.495,-0.044,-0.018,0.99,0.0,0.0,0.0,14,-11,-14,2.54,-1.25,-0.29,1.0,-0.011,0.022,-0.003,
467,1,3592.505,-0.045,-0.021,0.99,0.0,0.0,0.0,14,-11,-14,2.54,-1.25,-0.29,1.0,-0.011,0.022,-0.003,
468,1,3592.515,-0.047,-0.021,0.988,0.0,0.0,0.0,15,-11,-14,2.54,-1.25,-0.29,1.0,-0.011,0.022,-0.003,
469,1,3592.525,-0.041,-0.023,0.984,0.0,0.0,0.0,14,-11,-14,2.54,-1.25,-0.29,1.0,-0.011,0.022,-0.003,
470,1,3592.535,-0.044,-0.023,0.993,0.0,0.0,0.0,14,-11,-14,2.54,-1.25,-0.29,1.0,-0.011,0.022,-0.003,
471,1,3592.545,-0.041,-0.023,0.993,0.0,0.0,0.0,14,-12,-14,2.54,-1.25,-0.29,1.0,-0.011,0.022,-0.003,
472,1,3592.555,-0.052,-0.015,0.984,0.0,0.0,0.0,14,-11,-14,2.54,-1.25,-0.29,1.0,-0.011,0.022,-0.003,
473,1,3592.565,-0.046,-0.02,0.985,0.0,0.0,0.0,14,-11,-14,2.54,-1.25,-0.29,1.0,-0.011,0.022,-0.003,
474,1,3592.575,-0.042,-0.026,0.99,0.0,0.0,0.0,14,-11,-14,2.54,-1.24,-0.29,1.0,-0.011,0.022,-0.003,
475,1,3592.585,-0.049,-0.021,0.985,0.0,0.0,0.0,14,-11,-14,2.54,-1.24,-0.29,1.0,-0.011,0.022,-0.003,
476,1,3592.595,-0.043,-0.019,0.995,0.0,0.0,0.0,14,-11,-14,2.54,-1.25,-0.29,1.0,-0.011,0.022,-0.003,
477,1,3592.605,-0.042,-0.023,0.996,0.0,0.0,0.0,14,-11,-13,2.54,-1.24,-0.29,1.0,-0.011,0.022,-0.003,
478,1,3592.615,-0.039,-0.021,0.99,0.0,0.0,0.0,14,-11,-14,2.54,-1.24,-0.29,1.0,-0.011,0.022,-0.003,
479,1,3592.625,-0.04,-0.022,0.985,0.0,0.0,0.0,15,-11,-13,2.54,-1.24,-0.29,1.0,-0.011,0.022,-0.003,
480,1,3592.635,-0.047,-0.021,0.981,0.0,0.0,0.0,15,-11,-13,2.54,-1.24,-0.29,1.0,-0.011,0.022,-0.003,
481,1,3592.645,-0.043,-0.025,0.99,0.0,0.0,0.0,14,-11,-14,2.54,-1.24,-0.29,1.0,-0.011,0.022,-0.003,
482,1,3592.655,-0.043,-0.02,0.987,0.0,0.0,0.0,14,-11,-14,2.54,-1.24,-0.29,1.0,-0.011,0.022,-0.003,
483,1,3592.665,-0.04,-0.02,0.989,0.0,0.0,0.0,14,-11,-14,2.54,-1.24,-0.29,1.0,-0.011,0.022,-0.003,
484,1,3592.675,-0.045,-0.021,0.984,0.0,0.0,0.0,14,-11,-14,2.54,-1.24,-0.29,1.0,-0.011,0.022,-0.003,
485,1,3592.685,-0.042,-0.024,0.987,0.0,0.0,0.0,14,-11,-14,2.54,-1.24,-0.29,1.0,-0.011,0.022,-0.003,
486,1,3592.695,-0.046,-0.024,0.983,0.0,0.0,0.0,14,-11,-14,2.54,-1.24,-0.29,1.0,-0.011,0.022,-0.003,
487,1,3592.705,-0.041,-0.021,0.989,0.0,0.0,0.0,14,-11,-14,2.54,-1.24,-0.29,1.0,-0.011,0.022,-0.003,
488,1,3592.715,-0.046,-0.019,0.989,0.0,0.0,0.0,14,-11,-14,2.54,-1.24,-0.29,1.0,-0.011,0.022,-0.003,
489,1,3592.725,-0.042,-0.016,0.99,0.0,0.0,0.0,14,-11,-14,2.54,-1.24,-0.29,1.0,-0.011,0.022,-0.003,
490,1,3592.735,-0.043,-0.027,0.99,0.0,0.0,0.0,14,-11,-14,2.54,-1.24,-0.29,1.0,-0.011,0.022,-0.003,
491,1,3592.745,-0.046,-0.022,0.99,0.0,0.0,0.0,14,-11,-14,2.54,-1.24,-0.29,1.0,-0.011,0.022,-0.003,
492,1,3592.755,-0.042,-0.02,0.987,0.0,0.0,0.0,14,-11,-14,2.54,-1.24,-0.29,1.0,-0.011,0.022,-0.003,
493,1,3592.765,-0.044,-0.02,0.989,0.0,0.0,0.0,14,-11,-14,2.54,-1.24,-0.29,1.0,-0.011,0.022,-0.003,
494,1,3592.775,-0.043,-0.023,0.989,0.0,0.0,0.0,14,-12,-13,2.54,-1.24,-0.29,1.0,-0.011,0.022,-0.003,
495,1,3592.785,-0.045,-0.021,0.985,0.0,0.0,0.0,14,-11,-14,2.54,-1.24,-0.29,1.0,-0.011,0.022,-0.003,
496,1,3592.795,-0.044,-0.018,0.982,0.0,0.0,0.0,14,-11,-14,2.54,-1.24,-0.29,1.0,-0.011,0.022,-0.003,
497,1,3592.805,-0.041,-0.022,0.988,0.0,0.0,0.0,14,-11,-14,2.54,-1.24,-0.29,1.0,-0.011,0.022,-0.003,
498,1,3592.815,-0.048,-0.025,0.985,0.0,0.0,0.0,14,-11,-14,2.54,-1.24,-0.29,1.0,-0.011,0.022,-0.003,
499,1,3592.825,-0.046,-0.019,0.982,0.0,0.0,0.0,14,-11,-14,2.54,-1.24,-0.29,1.0,-0.011,0.022,-0.003,
500,1,3592.835,-0.044,-0.021,0.99,0.0,0.0,0.0,14,-11,-14,2.54,-1.24,-0.29,1.0,-0.011,0.022,-0.003,
501,1,3592.845,-0.044,-0.021,0.985,0.0,0.0,0.0,14,-11,-14,2.54,-1.24,-0.29,1.0,-0.011,0.022,-0.003,
502,1,3592.855,-0.044,-0.023,0.991,0.0,0.0,0.0,14,-11,-14,2.54,-1.24,-0.29,1.0,-0.011,0.022,-0.003,
503,1,3592.865,-0.046,-0.019,0.984,0.0,0.0,0.0,15,-11,-13,2.54,-1.24,-0.29,1.0,-0.011,0.022,-0.003,
504,1,3592.875,-0.04,-0.023,0.99,0.0,0.0,0.0,14,-11,-14,2.54,-1.24,-0.29,1.0,-0.011,0.022,-0.003,
505,1,3592.885,-0.046,-0.017,0.984,0.0,0.0,0.0,14,-11,-13,2.54,-1.24,-0.29,1.0,-0.011,0.022,-0.003,
506,1,3592.895,-0.042,-0.021,0.988,0.0,0.0,0.0,14,-11,-14,2.54,-1.25,-0.29,1.0,-0.011,0.022,-0.003,
507,1,3592.905,-0.042,-0.021,0.987,0.0,0.0,0.0,14,-11,-14,2.54,-1.24,-0.29,1.0,-0.011,0.022,-0.003,
508,1,3592.915,-0.044,-0.021,0.986,0.0,0.0,0.0,15,-11,-14,2.54,-1.24,-0.29,1.0,-0.011,0.022,-0.003,
509,1,3592.925,-0.042,-0.021,0.983,0.0,0.0,0.0,14,-11,-14,2.54,-1.24,-0.29,1.0,-0.011,0.022,-0.003,
510,1,3592.935,-0.045,-0.022,0.988,0.0,0.0,0.0,14,-11,-14,2.54,-1.24,-0.29,1.0,-0.011,0.022,-0.003,
511,1,3592.945,-0.046,-0.021,0.988,0.0,0.0,0.0,15,-11,-14,2.54,-1.24,-0.29,1.0,-0.011,0.022,-0.003,
512,1,3592.955,-0.043,-0.022,0.988,0.0,0.0,0.0,14,-11,-14,2.54,-1.24,-0.29,1.0,-0.011,0.022,-0.003,
513,1,3592.965,-0.044,-0.022,0.984,0.0,0.0,0.0,15,-11,-14,2.54,-1.24,-0.29,1.0,-0.011,0.022,-0.003,
514,1,3592.975,-0.044,-0.026,0.985,0.0,0.0,0.0,15,-11,-14,2.54,-1.24,-0.29,1.0,-0.011,0.022,-0.003,
515,1,3592.985,-0.048,-0.019,0.988,0.0,0.0,0.0,15,-11,-14,2.54,-1.25,-0.29,1.0,-0.011,0.022,-0.003,
516,1,3592.995,-0.045,-0.022,0.988,0.0,0.0,0.0,14,-11,-14,2.54,-1.25,-0.29,1.0,-0.011,0.022,-0.003,
517,1,3593.005,-0.042,-0.021,0.993,0.0,0.0,0.0,14,-11,-14,2.54,-1.25,-0.29,1.0,-0.011,0.022,-0.003,
518,1,3593.015,-0.048,-0.02,0.985,0.0,0.0,0.0,14,-11,-14,2.54,-1.24,-0.29,1.0,-0.011,0.022,-0.003,
519,1,3593.025,-0.046,-0.022,0.984,0.0,0.0,0.0,15,-11,-14,2.54,-1.25,-0.29,1.0,-0.011,0.022,-0.003,
520,1,3593.035,-0.044,-0.018,0.984,0.0,0.0,0.0,14,-11,-14,2.54,-1.25,-0.29,1.0,-0.011,0.022,-0.003,
521,1,3593.045,-0.046,-0.024,0.988,0.0,0.0,0.0,14,-11,-14,2.54,-1.24,-0.29,1.0,-0.011,0.022,-0.003,
522,1,3593.055,-0.046,-0.021,0.985,0.0,0.0,0.0,14,-11,-14,2.54,-1.25,-0.29,1.0,-0.011,0.022,-0.003,
523,1,3593.065,-0.044,-0.021,0.987,0.0,0.0,0.0,14,-11,-14,2.54,-1.25,-0.29,1.0,-0.011,0.022,-0.003,
524,1,3593.075,-0.044,-0.023,0.981,0.0,0.0,0.0,14,-11,-13,2.54,-1.24,-0.29,1.0,-0.011,0.022,-0.003,
525,1,3593.085,-0.041,-0.021,0.987,0.0,0.0,0.0,14,-12,-14,2.54,-1.25,-0.29,1.0,-0.011,0.022,-0.003,
526,1,3593.095,-0.044,-0.021,0.986,0.0,0.0,0.0,14,-11,-14,2.55,-1.25,-0.29,1.0,-0.011,0.022,-0.003,
527,1,3593.105,-0.042,-0.026,0.991,0.0,0.0,0.0,14,-11,-14,2.54,-1.25,-0.29,1.0,-0.011,0.022,-0.003,
528,1,3593.115,-0.045,-0.02,0.992,0.0,0.0,0.0,14,-11,-14,2.54,-1.25,-0.29,1.0,-0.011,0.022,-0.003,
529,1,3593.125,-0.045,-0.021,0.983,0.0,0.0,0.0,15,-11,-14,2.54,-1.25,-0.29,1.0,-0.011,0.022,-0.003,
530,1,3593.135,-0.046,-0.022,0.988,0.0,0.0,0.0,14,-11,-14,2.54,-1.25,-0.29,1.0,-0.011,0.022,-0.003,
531,1,3593.145,-0.043,-0.025,0.987,0.0,0.0,0.0,14,-11,-14,2.54,-1.25,-0.29,1.0,-0.011,0.022,-0.003,
532,1,3593.155,-0.043,-0.019,0.989,0.0,0.0,0.0,14,-11,-14,2.54,-1.25,-0.29,1.0,-0.011,0.022,-0.003,
533,1,3593.165,-0.046,-0.022,0.989,0.0,0.0,0.0,14,-11,-14,2.54,-1.25,-0.29,1.0,-0.011,0.022,-0.003,
534,1,3593.175,-0.039,-0.022,0.983,0.0,0.0,0.0,14,-11,-14,2.54,-1.25,-0.29,1.0,-0.011,0.022,-0.003,
535,1,3593.185,-0.047,-0.02,0.983,0.0,0.0,0.0,14,-11,-13,2.54,-1.25,-0.29,1.0,-0.011,0.022,-0.003,
536,1,3593.195,-0.045,-0.021,0.988,0.0,0.0,0.0,14,-11,-14,2.54,-1.25,-0.29,1.0,-0.011,0.022,-0.003,
537,1,3593.205,-0.043,-0.022,0.99,0.0,0.0,0.0,15,-11,-14,2.55,-1.25,-0.29,1.0,-0.011,0.022,-0.003,
538,1,3593.215,-0.046,-0.026,0.987,0.0,0.0,0.0,14,-11,-13,2.54,-1.25,-0.29,1.0,-0.011,0.022,-0.003,
539,1,3593.225,-0.043,-0.021,0.988,0.0,0.0,0.0,15,-11,-13,2.54,-1.25,-0.29,1.0,-0.011,0.022,-0.003,
540,1,3593.235,-0.045,-0.025,0.985,0.0,0.0,0.0,15,-11,-13,2.54,-1.25,-0.29,1.0,-0.011,0.022,-0.003,
541,1,3593.245,-0.047,-0.021,0.987,0.0,0.0,0.0,14,-11,-14,2.54,-1.25,-0.29,1.0,-0.011,0.022,-0.003,
542,1,3593.255,-0.041,-0.013,0.99,0.0,0.0,0.0,15,-11,-14,2.55,-1.25,-0.29,1.0,-0.011,0.022,-0.003,
543,1,3593.265,-0.042,-0.023,0.979,0.0,0.0,0.0,15,-11,-14,2.55,-1.25,-0.29,1.0,-0.011,0.022,-0.003,
544,1,3593.275,-0.047,-0.021,0.985,0.0,0.0,0.0,15,-11,-13,2.55,-1.25,-0.29,1.0,-0.011,0.022,-0.003,
545,1,3593.285,-0.044,-0.019,0.991,0.0,0.0,0.0,14,-11,-14,2.55,-1.25,-0.29,1.0,-0.011,0.022,-0.003,
546,1,3593.295,-0.044,-0.021,0.987,0.0,0.0,0.0,14,-12,-14,2.55,-1.25,-0.29,1.0,-0.011,0.022,-0.003,
547,1,3593.305,-0.04,-0.022,0.986,0.0,0.0,0.0,14,-11,-14,2.55,-1.25,-0.29,1.0,-0.011,0.022,-0.003,
548,1,3593.315,-0.044,-0.019,0.99,0.0,0.0,0.0,14,-11,-15,2.54,-1.25,-0.29,1.0,-0.011,0.022,-0.003,
549,1,3593.325,-0.041,-0.02,0.991,0.0,0.0,0.0,15,-11,-14,2.54,-1.25,-0.29,1.0,-0.011,0.022,-0.003,
550,1,3593.335,-0.043,-0.026,0.995,0.0,0.0,0.0,14,-11,-14,2.55,-1.25,-0.29,1.0,-0.011,0.022,-0.003,
551,1,3593.345,-0.04,-0.021,0.993,0.0,0.0,0.0,14,-11,-14,2.54,-1.25,-0.29,1.0,-0.011,0.022,-0.003,
552,1,3593.355,-0.045,-0.016,0.987,0.0,0.0,0.0,15,-12,-14,2.54,-1.25,-0.29,1.0,-0.011,0.022,-0.003,
553,1,3593.365,-0.045,-0.019,0.994,0.0,0.0,0.0,15,-11,-14,2.54,-1.25,-0.29,1.0,-0.011,0.022,-0.003,
554,1,3593.375,-0.044,-0.024,0.982,0.0,0.0,0.0,14,-11,-14,2.55,-1.25,-0.29,1.0,-0.011,0.022,-0.003,
555,1,3593.385,-0.045,-0.022,0.983,0.0,0.0,0.0,14,-11,-14,2.55,-1.25,-0.29,1.0,-0.011,0.022,-0.003,
556,1,3593.395,-0.044,-0.021,0.987,0.0,0.0,0.0,14,-11,-14,2.55,-1.25,-0.29,1.0,-0.011,0.022,-0.003,
557,1,3593.405,-0.045,-0.023,0.99,0.0,0.0,0.0,14,-11,-14,2.55,-1.25,-0.29,1.0,-0.011,0.022,-0.003,
558,1,3593.415,-0.044,-0.021,0.99,0.0,0.0,0.0,14,-11,-14,2.55,-1.25,-0.29,1.0,-0.011,0.022,-0.003,
559,1,3593.425,-0.047,-0.018,0.987,0.0,0.0,0.0,14,-12,-14,2.55,-1.25,-0.29,1.0,-0.011,0.022,-0.003,
560,1,3593.435,-0.044,-0.025,0.987,0.0,0.0,0.0,14,-11,-14,2.55,-1.25,-0.29,1.0,-0.011,0.022,-0.003,
561,1,3593.445,-0.043,-0.02,0.987,0.0,0.0,0.0,14,-12,-14,2.55,-1.25,-0.29,1.0,-0.011,0.022,-0.003,
562,1,3593.455,-0.045,-0.02,0.99,0.0,0.0,0.0,15,-11,-14,2.55,-1.25,-0.29,1.0,-0.011,0.022,-0.003,
563,1,3593.465,-0.047,-0.023,0.993,0.0,0.0,0.0,15,-11,-14,2.55,-1.25,-0.29,1.0,-0.011,0.022,-0.003,
564,1,3593.475,-0.046,-0.021,0.981,0.0,0.0,0.0,15,-11,-13,2.55,-1.25,-0.29,1.0,-0.011,0.022,-0.003,
565,1,3593.485,-0.045,-0.021,0.99,0.0,0.0,0.0,15,-12,-13,2.55,-1.25,-0.29,1.0,-0.011,0.022,-0.003,
566,1,3593.495,-0.04,-0.02,0.987,0.0,0.0,0.0,14,-11,-14,2.55,-1.25,-0.29,1.0,-0.011,0.022,-0.003,
567,1,3593.505,-0.043,-0.025,0.99,0.0,0.0,0.0,14,-12,-14,2.55,-1.25,-0.29,1.0,-0.011,0.022,-0.003,
568,1,3593.515,-0.046,-0.02,0.985,0.0,0.0,0.0,14,-11,-14,2.54,-1.25,-0.29,1.0,-0.011,0.022,-0.003,
569,1,3593.525,-0.04,-0.021,0.99,0.0,0.0,0.0,15,-11,-13,2.55,-1.25,-0.29,1.0,-0.011,0.022,-0.003,
570,1,3593.535,-0.042,-0.023,0.99,0.0,0.0,0.0,15,-11,-13,2.55,-1.25,-0.29,1.0,-0.011,0.022,-0.003,
571,1,3593.545,-0.044,-0.025,0.99,0.0,0.0,0.0,14,-11,-14,2.55,-1.25,-0.29,1.0,-0.011,0.022,-0.003,
572,1,3593.555,-0.046,-0.019,0.993,0.0,0.0,0.0,15,-12,-14,2.55,-1.25,-0.29,1.0,-0.011,0.022,-0.003,
573,1,3593.565,-0.044,-0.023,0.987,0.0,0.0,0.0,14,-11,-14,2.55,-1.25,-0.29,1.0,-0.011,0.022,-0.003,
574,1,3593.575,-0.041,-0.024,0.989,0.0,0.0,0.0,14,-11,-14,2.55,-1.25,-0.29,1.0,-0.011,0.022,-0.003,
575,1,3593.585,-0.042,-0.021,0.989,0.0,0.0,0.0,14,-11,-14,2.54,-1.25,-0.29,1.0,-0.011,0.022,-0.003,
576,1,3593.595,-0.045,-0.02,0.988,0.0,0.0,0.0,14,-11,-14,2.55,-1.25,-0.29,1.0,-0.011,0.022,-0.003,
577,1,3593.605,-0.043,-0.021,0.99,0.0,0.0,0.0,14,-11,-14,2.55,-1.25,-0.29,1.0,-0.011,0.022,-0.003,
578,1,3593.615,-0.046,-0.021,0.99,0.0,0.0,0.0,14,-11,-13,2.54,-1.25,-0.29,1.0,-0.011,0.022,-0.003,
579,1,3593.625,-0.043,-0.019,0.983,0.0,0.0,0.0,14,-11,-14,2.55,-1.25,-0.29,1.0,-0.011,0.022,-0.003,
580,1,3593.635,-0.045,-0.02,0.988,0.0,0.0,0.0,14,-11,-14,2.55,-1.25,-0.29,1.0,-0.011,0.022,-0.003,
581,1,3593.645,-0.047,-0.023,0.988,0.0,0.0,0.0,14,-12,-14,2.55,-1.25,-0.29,1.0,-0.011,0.022,-0.003,
582,1,3593.655,-0.04,-0.021,0.989,0.0,0.0,0.0,15,-11,-14,2.55,-1.25,-0.29,1.0,-0.011,0.022,-0.003,
583,1,3593.665,-0.045,-0.019,0.987,0.0,0.0,0.0,14,-11,-14,2.54,-1.25,-0.29,1.0,-0.011,0.022,-0.003,
584,1,3593.675,-0.046,-0.023,0.988,0.0,0.0,0.0,14,-11,-14,2.54,-1.25,-0.29,1.0,-0.011,0.022,-0.003,
585,1,3593.685,-0.044,-0.023,0.993,0.0,0.0,0.0,14,-11,-14,2.54,-1.25,-0.29,1.0,-0.011,0.022,-0.003,
586,1,3593.695,-0.041,-0.022,0.986,0.0,0.0,0.0,14,-11,-14,2.54,-1.25,-0.29,1.0,-0.011,0.022,-0.003,
587,1,3593.705,-0.041,-0.021,0.99,0.0,0.0,0.0,14,-11,-14,2.54,-1.25,-0.29,1.0,-0.011,0.022,-0.003,
588,1,3593.716,-0.045,-0.022,0.985,0.0,0.0,0.0,14,-11,-14,2.54,-1.25,-0.29,1.0,-0.011,0.022,-0.003,
589,1,3593.726,-0.041,-0.019,0.987,0.0,0.0,0.0,14,-11,-14,2.54,-1.25,-0.29,1.0,-0.011,0.022,-0.003,
590,1,3593.736,-0.041,-0.028,0.993,0.0,0.0,0.0,14,-11,-14,2.54,-1.25,-0.29,1.0,-0.011,0.022,-0.003,
591,1,3593.746,-0.046,-0.021,0.986,0.0,0.0,0.0,14,-12,-14,2.54,-1.25,-0.29,1.0,-0.011,0.022,-0.003,
592,1,3593.756,-0.046,-0.017,0.988,0.0,0.0,0.0,15,-11,-14,2.54,-1.25,-0.29,1.0,-0.011,0.022,-0.003,
593,1,3593.766,-0.044,-0.022,0.987,0.0,0.0,0.0,14,-11,-13,2.54,-1.25,-0.29,1.0,-0.011,0.022,-0.003,
594,1,3593.776,-0.043,-0.022,0.988,0.0,0.0,0.0,15,-12,-14,2.54,-1.25,-0.29,1.0,-0.011,0.022,-0.003,
595,1,3593.786,-0.042,-0.02,0.984,0.0,0.0,0.0,15,-12,-14,2.54,-1.25,-0.29,1.0,-0.011,0.022,-0.003,
596,1,3593.796,-0.043,-0.023,0.983,0.0,0.0,0.0,14,-11,-14,2.54,-1.25,-0.29,1.0,-0.011,0.022,-0.003,
597,1,3593.805,-0.041,-0.022,0.993,0.0,0.0,0.0,14,-11,-14,2.54,-1.25,-0.29,1.0,-0.011,0.022,-0.003,
598,1,3593.816,-0.045,-0.027,0.986,0.0,0.0,0.0,15,-12,-14,2.54,-1.25,-0.29,1.0,-0.011,0.022,-0.003,
599,1,3593.826,-0.04,-0.02,0.989,0.0,0.0,0.0,15,-11,-14,2.54,-1.25,-0.29,1.0,-0.011,0.022,-0.003,
600,1,3593.836,-0.043,-0.021,0.992,0.0,0.0,0.0,14,-11,-14,2.54,-1.25,-0.29,1.0,-0.011,0.022,-0.003,
601,1,3593.846,-0.044,-0.022,0.993,0.0,0.0,0.0,14,-11,-14,2.54,-1.25,-0.29,1.0,-0.011,0.022,-0.003,
602,1,3593.856,-0.045,-0.023,0.99,0.0,0.0,0.0,14,-11,-14,2.54,-1.25,-0.29,1.0,-0.011,0.022,-0.003,
603,1,3593.866,-0.045,-0.02,0.985,0.0,0.0,0.0,15,-11,-14,2.54,-1.25,-0.29,1.0,-0.011,0.022,-0.003,
604,1,3593.876,-0.046,-0.022,0.993,0.0,0.0,0.0,14,-11,-14,2.54,-1.25,-0.29,1.0,-0.011,0.022,-0.003,
605,1,3593.886,-0.039,-0.022,0.986,0.0,0.0,0.0,14,-11,-14,2.54,-1.25,-0.29,1.0,-0.011,0.022,-0.003,
606,1,3593.896,-0.042,-0.021,0.994,0.0,0.0,0.0,15,-11,-14,2.54,-1.25,-0.29,1.0,-0.011,0.022,-0.003,
607,1,3593.906,-0.047,-0.02,0.983,0.0,0.0,0.0,14,-11,-14,2.54,-1.25,-0.29,1.0,-0.011,0.022,-0.003,
608,1,3593.916,-0.04,-0.022,0.995,0.0,0.0,0.0,14,-11,-14,2.54,-1.25,-0.29,1.0,-0.011,0.022,-0.003,
609,1,3593.926,-0.045,-0.022,0.992,0.0,0.0,0.0,14,-11,-14,2.54,-1.25,-0.29,1.0,-0.011,0.022,-0.003,
610,1,3593.936,-0.045,-0.02,0.99,0.0,0.0,0.0,15,-11,-14,2.54,-1.25,-0.29,1.0,-0.011,0.022,-0.003,
611,1,3593.946,-0.044,-0.019,0.986,0.0,0.0,0.0,14,-11,-14,2.54,-1.25,-0.29,1.0,-0.011,0.022,-0.003,
612,1,3593.956,-0.043,-0.022,0.993,0.0,0.0,0.0,14,-12,-14,2.54,-1.25,-0.29,1.0,-0.011,0.022,-0.003,
613,1,3593.966,-0.037,-0.023,0.988,0.0,0.0,0.0,14,-12,-14,2.54,-1.25,-0.29,1.0,-0.011,0.022,-0.003,
614,1,3593.976,-0.044,-0.024,0.988,0.0,0.0,0.0,14,-11,-14,2.54,-1.25,-0.29,1.0,-0.011,0.022,-0.003,
615,1,3593.986,-0.049,-0.021,0.984,0.0,0.0,0.0,15,-11,-14,2.54,-1.25,-0.29,1.0,-0.011,0.022,-0.003,
616,1,3593.996,-0.041,-0.022,0.991,0.0,0.0,0.0,15,-12,-14,2.54,-1.25,-0.29,1.0,-0.011,0.022,-0.003,
617,1,3594.006,-0.039,-0.025,0.992,0.0,0.0,0.0,14,-11,-14,2.54,-1.25,-0.29,1.0,-0.011,0.022,-0.003,
618,1,3594.016,-0.045,-0.019,0.987,0.0,0.0,0.0,15,-12,-14,2.54,-1.25,-0.29,1.0,-0.011,0.022,-0.003,
619,1,3594.026,-0.045,-0.02,0.982,0.0,0.0,0.0,15,-12,-13,2.54,-1.25,-0.29,1.0,-0.011,0.022,-0.003,
620,1,3594.036,-0.046,-0.023,0.983,0.0,0.0,0.0,15,-11,-14,2.54,-1.25,-0.29,1.0,-0.011,0.022,-0.003,
621,1,3594.046,-0.046,-0.027,0.997,0.0,0.0,0.0,15,-11,-14,2.54,-1.25,-0.29,1.0,-0.011,0.022,-0.003,
622,1,3594.056,-0.044,-0.019,0.987,0.0,0.0,0.0,14,-11,-14,2.54,-1.25,-0.29,1.0,-0.011,0.022,-0.003,
623,1,3594.066,-0.046,-0.019,0.984,0.0,0.0,0.0,15,-11,-14,2.54,-1.25,-0.29,1.0,-0.011,0.022,-0.003,
624,1,3594.076,-0.041,-0.026,0.987,0.0,0.0,0.0,14,-11,-14,2.54,-1.25,-0.29,1.0,-0.011,0.022,-0.003,
625,1,3594.086,-0.045,-0.021,0.989,0.0,0.0,0.0,14,-11,-14,2.54,-1.25,-0.29,1.0,-0.011,0.022,-0.003,
626,1,3594.096,-0.043,-0.02,0.985,0.0,0.0,0.0,14,-12,-14,2.54,-1.25,-0.29,1.0,-0.011,0.022,-0.003,
627,1,3594.106,-0.041,-0.023,0.987,0.0,0.0,0.0,15,-11,-14,2.54,-1.25,-0.29,1.0,-0.011,0.022,-0.003,
628,1,3594.116,-0.044,-0.023,0.986,0.0,0.0,0.0,14,-11,-14,2.54,-1.25,-0.29,1.0,-0.011,0.022,-0.003,
629,1,3594.126,-0.038,-0.021,0.992,0.0,0.0,0.0,15,-11,-14,2.54,-1.25,-0.29,1.0,-0.011,0.022,-0.003,
630,1,3594.136,-0.047,-0.021,0.986,0.0,0.0,0.0,14,-11,-14,2.54,-1.25,-0.29,1.0,-0.011,0.022,-0.003,
631,1,3594.146,-0.046,-0.021,0.986,0.0,0.0,0.0,15,-11,-14,2.54,-1.25,-0.29,1.0,-0.011,0.022,-0.003,
632,1,3594.156,-0.041,-0.023,0.988,0.0,0.0,0.0,14,-12,-14,2.54,-1.25,-0.29,1.0,-0.011,0.022,-0.003,
633,1,3594.166,-0.042,-0.022,0.998,0.0,0.0,0.0,14,-11,-14,2.54,-1.25,-0.29,1.0,-0.011,0.022,-0.003,
634,1,3594.176,-0.042,-0.018,0.99,0.0,0.0,0.0,15,-11,-14,2.54,-1.25,-0.29,1.0,-0.011,0.022,-0.003,
635,1,3594.186,-0.047,-0.021,0.982,0.0,0.0,0.0,14,-12,-14,2.54,-1.25,-0.29,1.0,-0.011,0.022,-0.003,
636,1,3594.196,-0.044,-0.023,0.99,0.0,0.0,0.0,14,-11,-14,2.54,-1.25,-0.29,1.0,-0.011,0.022,-0.003,
637,1,3594.206,-0.045,-0.023,0.983,0.0,0.0,0.0,15,-11,-14,2.54,-1.25,-0.29,1.0,-0.011,0.022,-0.003,
638,1,3594.216,-0.044,-0.016,0.985,0.0,0.0,0.0,15,-12,-14,2.54,-1.26,-0.29,1.0,-0.011,0.022,-0.003,
639,1,3594.226,-0.044,-0.021,0.989,0.0,0.0,0.0,14,-12,-14,2.53,-1.25,-0.29,1.0,-0.011,0.022,-0.003,
640,1,3594.236,-0.043,-0.019,0.989,0.0,0.0,0.0,14,-11,-14,2.53,-1.25,-0.29,1.0,-0.011,0.022,-0.003,
641,1,3594.246,-0.042,-0.022,0.99,0.0,0.0,0.0,14,-11,-14,2.53,-1.25,-0.29,1.0,-0.011,0.022,-0.003,
642,1,3594.256,-0.047,-0.019,0.987,0.0,0.0,0.0,14,-11,-14,2.53,-1.25,-0.29,1.0,-0.011,0.022,-0.003,
643,1,3594.266,-0.045,-0.024,0.986,0.0,0.0,0.0,14,-11,-14,2.54,-1.25,-0.29,1.0,-0.011,0.022,-0.003,
644,1,3594.276,-0.044,-0.025,0.986,0.0,0.0,0.0,14,-12,-14,2.54,-1.25,-0.29,1.0,-0.011,0.022,-0.003,
645,1,3594.286,-0.045,-0.025,0.99,0.0,0.0,0.0,14,-11,-14,2.53,-1.25,-0.29,1.0,-0.011,0.022,-0.003,
646,1,3594.296,-0.045,-0.015,0.99,0.0,0.0,0.0,14,-11,-14,2.53,-1.25,-0.29,1.0,-0.011,0.022,-0.003,
647,1,3594.306,-0.048,-0.021,0.987,0.0,0.0,0.0,14,-12,-14,2.54,-1.25,-0.29,1.0,-0.011,0.022,-0.003,
648,1,3594.316,-0.039,-0.027,0.987,0.0,0.0,0.0,14,-11,-14,2.54,-1.25,-0.29,1.0,-0.011,0.022,-0.003,
649,1,3594.326,-0.045,-0.019,0.982,0.0,0.0,0.0,15,-11,-13,2.54,-1.25,-0.29,1.0,-0.011,0.022,-0.003,
650,1,3594.336,-0.048,-0.018,0.99,0.0,0.0,0.0,15,-11,-14,2.53,-1.25,-0.29,1.0,-0.011,0.022,-0.003,
651,1,3594.346,-0.044,-0.023,0.989,0.0,0.0,0.0,15,-11,-14,2.54,-1.25,-0.29,1.0,-0.011,0.022,-0.003,
652,1,3594.356,-0.04,-0.022,0.984,0.0,0.0,0.0,14,-12,-14,2.54,-1.25,-0.29,1.0,-0.011,0.022,-0.003,
653,1,3594.366,-0.046,-0.021,0.99,0.0,0.0,0.0,14,-11,-14,2.54,-1.25,-0.29,1.0,-0.011,0.022,-0.003,
654,1,3594.376,-0.046,-0.02,0.986,0.0,0.0,0.0,14,-11,-14,2.54,-1.25,-0.29,1.0,-0.011,0.022,-0.003,
655,1,3594.386,-0.041,-0.022,0.987,0.0,0.0,0.0,15,-12,-13,2.54,-1.24,-0.29,1.0,-0.011,0.022,-0.003,
656,1,3594.396,-0.04,-0.021,0.99,0.0,0.0,0.0,14,-11,-14,2.54,-1.24,-0.29,1.0,-0.011,0.022,-0.003,
657,1,3594.406,-0.043,-0.025,0.979,0.0,0.0,0.0,14,-11,-14,2.53,-1.24,-0.29,1.0,-0.011,0.022,-0.003,
658,1,3594.416,-0.047,-0.024,0.985,0.0,0.0,0.0,14,-11,-14,2.53,-1.24,-0.29,1.0,-0.011,0.022,-0.003,
659,1,3594.426,-0.042,-0.022,0.991,0.0,0.0,0.0,14,-11,-14,2.54,-1.24,-0.29,1.0,-0.011,0.022,-0.003,
660,1,3594.436,-0.043,-0.02,0.992,0.0,0.0,0.0,15,-11,-14,2.54,-1.24,-0.29,1.0,-0.011,0.022,-0.003,
661,1,3594.446,-0.047,-0.024,0.985,0.0,0.0,0.0,14,-11,-14,2.54,-1.25,-0.29,1.0,-0.011,0.022,-0.003,
662,1,3594.456,-0.048,-0.021,0.983,0.0,0.0,0.0,14,-11,-14,2.54,-1.25,-0.29,1.0,-0.011,0.022,-0.003,
663,1,3594.466,-0.043,-0.021,0.986,0.0,0.0,0.0,14,-11,-14,2.54,-1.25,-0.29,1.0,-0.011,0.022,-0.003,
664,1,3594.476,-0.041,-0.026,0.986,0.0,0.0,0.0,14,-11,-14,2.54,-1.24,-0.29,1.0,-0.011,0.022,-0.003,
665,1,3594.486,-0.046,-0.022,0.992,0.0,0.0,0.0,14,-11,-14,2.54,-1.25,-0.29,1.0,-0.011,0.022,-0.003,
666,1,3594.496,-0.043,-0.018,0.986,0.0,0.0,0.0,14,-11,-14,2.54,-1.25,-0.29,1.0,-0.011,0.022,-0.003,
667,1,3594.506,-0.045,-0.023,0.985,0.0,0.0,0.0,14,-11,-14,2.54,-1.25,-0.29,1.0,-0.011,0.022,-0.003,
668,1,3594.516,-0.044,-0.027,0.99,0.0,0.0,0.0,15,-11,-13,2.54,-1.24,-0.29,1.0,-0.011,0.022,-0.003,
669,1,3594.526,-0.046,-0.019,0.985,0.0,0.0,0.0,14,-11,-13,2.54,-1.25,-0.29,1.0,-0.011,0.022,-0.003,
670,1,3594.536,-0.044,-0.021,0.99,0.0,0.0,0.0,14,-11,-14,2.54,-1.25,-0.29,1.0,-0.011,0.022,-0.003,
671,1,3594.546,-0.037,-0.025,0.986,0.0,0.0,0.0,15,-11,-14,2.54,-1.24,-0.29,1.0,-0.011,0.022,-0.003,
672,1,3594.556,-0.045,-0.022,0.989,0.0,0.0,0.0,15,-11,-14,2.54,-1.25,-0.29,1.0,-0.011,0.022,-0.003,
673,1,3594.566,-0.046,-0.02,0.983,0.0,0.0,0.0,14,-11,-14,2.54,-1.25,-0.29,1.0,-0.011,0.022,-0.003,
674,1,3594.576,-0.048,-0.02,0.979,0.0,0.0,0.0,14,-11,-14,2.54,-1.25,-0.29,1.0,-0.011,0.022,-0.003,
675,1,3594.586,-0.042,-0.026,0.986,0.0,0.0,0.0,14,-11,-14,2.54,-1.24,-0.29,1.0,-0.011,0.022,-0.003,
676,1,3594.596,-0.046,-0.019,0.989,0.0,0.0,0.0,15,-11,-14,2.54,-1.25,-0.29,1.0,-0.011,0.022,-0.003,
677,1,3594.606,-0.041,-0.023,0.994,0.0,0.0,0.0,14,-11,-14,2.54,-1.25,-0.29,1.0,-0.011,0.022,-0.003,
678,1,3594.616,-0.046,-0.022,0.986,0.0,0.0,0.0,14,-11,-14,2.54,-1.25,-0.29,1.0,-0.011,0.022,-0.003,
679,1,3594.626,-0.047,-0.021,0.99,0.0,0.0,0.0,15,-12,-13,2.54,-1.25,-0.29,1.0,-0.011,0.022,-0.003,
680,1,3594.636,-0.043,-0.023,0.99,0.0,0.0,0.0,14,-11,-14,2.54,-1.25,-0.29,1.0,-0.011,0.022,-0.003,
681,1,3594.646,-0.044,-0.021,0.989,0.0,0.0,0.0,14,-11,-14,2.54,-1.25,-0.29,1.0,-0.011,0.022,-0.003,
682,1,3594.656,-0.045,-0.025,0.988,0.0,0.0,0.0,15,-11,-14,2.54,-1.25,-0.29,1.0,-0.011,0.022,-0.003,
683,1,3594.666,-0.043,-0.019,0.987,0.0,0.0,0.0,15,-12,-14,2.54,-1.25,-0.29,1.0,-0.011,0.022,-0.003,
684,1,3594.676,-0.045,-0.023,0.99,0.0,0.0,0.0,15,-11,-14,2.54,-1.25,-0.29,1.0,-0.011,0.022,-0.003,
685,1,3594.686,-0.046,-0.021,0.985,0.0,0.0,0.0,15,-11,-14,2.54,-1.25,-0.29,1.0,-0.011,0.022,-0.003,
686,1,3594.696,-0.043,-0.019,0.984,0.0,0.0,0.0,15,-11,-14,2.54,-1.25,-0.29,1.0,-0.011,0.022,-0.003,
687,1,3594.706,-0.044,-0.02,0.985,0.0,0.0,0.0,14,-11,-14,2.54,-1.25,-0.29,1.0,-0.011,0.022,-0.003,
688,1,3594.716,-0.042,-0.027,0.986,0.0,0.0,0.0,14,-11,-14,2.54,-1.25,-0.29,1.0,-0.011,0.022,-0.003,
689,1,3594.726,-0.05,-0.02,0.98,0.0,0.0,0.0,14,-11,-14,2.54,-1.25,-0.29,1.0,-0.011,0.022,-0.003,
690,1,3594.736,-0.036,-0.018,0.992,0.0,0.0,0.0,14,-11,-14,2.54,-1.25,-0.29,1.0,-0.011,0.022,-0.003,
691,1,3594.746,-0.044,-0.025,0.989,0.0,0.0,0.0,14,-11,-14,2.54,-1.24,-0.29,1.0,-0.011,0.022,-0.003,
692,1,3594.756,-0.05,-0.021,0.99,0.0,0.0,0.0,14,-11,-14,2.54,-1.24,-0.29,1.0,-0.011,0.022,-0.003,
693,1,3594.766,-0.044,-0.02,0.991,0.0,0.0,0.0,14,-11,-14,2.54,-1.25,-0.29,1.0,-0.011,0.022,-0.003,
694,1,3594.776,-0.045,-0.022,0.985,0.0,0.0,0.0,14,-12,-14,2.54,-1.24,-0.29,1.0,-0.011,0.022,-0.003,
695,1,3594.786,-0.045,-0.023,0.988,0.0,0.0,0.0,14,-11,-14,2.54,-1.24,-0.29,1.0,-0.011,0.022,-0.003,
696,1,3594.796,-0.045,-0.016,0.987,0.0,0.0,0.0,14,-11,-14,2.54,-1.24,-0.29,1.0,-0.011,0.022,-0.003,
697,1,3594.806,-0.045,-0.024,0.984,0.0,0.0,0.0,14,-11,-14,2.54,-1.24,-0.29,1.0,-0.011,0.022,-0.003,
698,1,3594.816,-0.045,-0.024,0.986,0.0,0.0,0.0,14,-11,-13,2.54,-1.24,-0.29,1.0,-0.011,0.022,-0.003,
699,1,3594.826,-0.042,-0.021,0.984,0.0,0.0,0.0,14,-11,-14,2.54,-1.25,-0.29,1.0,-0.011,0.022,-0.003,
700,1,3594.836,-0.044,-0.02,0.988,0.0,0.0,0.0,15,-11,-14,2.54,-1.25,-0.29,1.0,-0.011,0.022,-0.003,
701,1,3594.846,-0.045,-0.022,0.988,0.0,0.0,0.0,14,-11,-14,2.54,-1.25,-0.29,1.0,-0.011,0.022,-0.003,
702,1,3594.856,-0.047,-0.021,0.988,0.0,0.0,0.0,14,-11,-14,2.54,-1.25,-0.29,1.0,-0.011,0.022,-0.003,
703,1,3594.866,-0.043,-0.02,0.987,0.0,0.0,0.0,14,-11,-14,2.54,-1.25,-0.29,1.0,-0.011,0.022,-0.003,
704,1,3594.876,-0.039,-0.023,0.989,0.0,0.0,0.0,15,-11,-14,2.54,-1.25,-0.29,1.0,-0.011,0.022,-0.003,
705,1,3594.886,-0.053,-0.021,0.985,0.0,0.0,0.0,14,-11,-14,2.54,-1.25,-0.29,1.0,-0.011,0.022,-0.003,
706,1,3594.896,-0.043,-0.02,0.99,0.0,0.0,0.0,14,-11,-14,2.54,-1.25,-0.29,1.0,-0.011,0.022,-0.003,
707,1,3594.906,-0.039,-0.024,0.987,0.0,0.0,0.0,15,-12,-14,2.54,-1.25,-0.29,1.0,-0.011,0.022,-0.003,
708,1,3594.916,-0.047,-0.02,0.987,0.0,0.0,0.0,14,-12,-13,2.54,-1.25,-0.29,1.0,-0.011,0.022,-0.003,
709,1,3594.926,-0.043,-0.017,0.988,0.0,0.0,0.0,15,-11,-14,2.54,-1.25,-0.29,1.0,-0.011,0.022,-0.003,
710,1,3594.936,-0.042,-0.02,0.991,0.0,0.0,0.0,14,-11,-14,2.54,-1.25,-0.29,1.0,-0.011,0.022,-0.003,
711,1,3594.946,-0.044,-0.021,0.989,0.0,0.0,0.0,14,-11,-14,2.54,-1.24,-0.29,1.0,-0.011,0.022,-0.003,
712,1,3594.956,-0.045,-0.019,0.989,0.0,0.0,0.0,15,-11,-14,2.54,-1.25,-0.29,1.0,-0.011,0.022,-0.003,
713,1,3594.966,-0.043,-0.021,0.981,0.0,0.0,0.0,15,-11,-13,2.54,-1.25,-0.29,1.0,-0.011,0.022,-0.003,
714,1,3594.976,-0.042,-0.023,0.985,0.0,0.0,0.0,14,-11,-14,2.54,-1.25,-0.29,1.0,-0.011,0.022,-0.003,
715,1,3594.986,-0.044,-0.026,0.988,0.0,0.0,0.0,15,-11,-14,2.54,-1.25,-0.29,1.0,-0.011,0.022,-0.003,
716,1,3594.996,-0.045,-0.02,0.989,0.0,0.0,0.0,14,-12,-14,2.54,-1.25,-0.29,1.0,-0.011,0.022,-0.003,
717,1,3595.006,-0.041,-0.022,0.992,0.0,0.0,0.0,15,-11,-14,2.54,-1.24,-0.29,1.0,-0.011,0.022,-0.003,
718,1,3595.016,-0.046,-0.022,0.988,0.0,0.0,0.0,14,-11,-14,2.54,-1.24,-0.29,1.0,-0.011,0.022,-0.003,
719,1,3595.026,-0.043,-0.019,0.989,0.0,0.0,0.0,15,-11,-14,2.54,-1.25,-0.29,1.0,-0.011,0.022,-0.003,
720,1,3595.036,-0.046,-0.023,0.984,0.0,0.0,0.0,15,-11,-14,2.54,-1.25,-0.29,1.0,-0.011,0.022,-0.003,
721,1,3595.046,-0.043,-0.027,0.99,0.0,0.0,0.0,14,-11,-14,2.54,-1.24,-0.29,1.0,-0.011,0.022,-0.003,
722,1,3595.056,-0.047,-0.017,0.98,0.0,0.0,0.0,14,-11,-14,2.54,-1.25,-0.29,1.0,-0.011,0.022,-0.003,
723,1,3595.066,-0.036,-0.023,0.993,0.0,0.0,0.0,14,-11,-14,2.54,-1.25,-0.29,1.0,-0.011,0.022,-0.003,
724,1,3595.076,-0.046,-0.021,0.983,0.0,0.0,0.0,14,-11,-13,2.54,-1.25,-0.29,1.0,-0.011,0.022,-0.003,
725,1,3595.086,-0.043,-0.021,0.988,0.0,0.0,0.0,14,-11,-14,2.54,-1.25,-0.29,1.0,-0.011,0.022,-0.003,
726,1,3595.096,-0.044,-0.021,0.986,0.0,0.0,0.0,15,-11,-14,2.54,-1.25,-0.29,1.0,-0.011,0.022,-0.003,
727,1,3595.106,-0.043,-0.023,0.992,0.0,0.0,0.0,15,-11,-14,2.54,-1.25,-0.29,1.0,-0.011,0.022,-0.003,
728,1,3595.116,-0.047,-0.023,0.989,0.0,0.0,0.0,15,-11,-14,2.54,-1.25,-0.29,1.0,-0.011,0.022,-0.003,
729,1,3595.126,-0.044,-0.022,0.992,0.0,0.0,0.0,14,-11,-13,2.54,-1.25,-0.29,1.0,-0.011,0.022,-0.003,
730,1,3595.136,-0.042,-0.021,0.99,0.0,0.0,0.0,15,-11,-13,2.54,-1.25,-0.29,1.0,-0.011,0.022,-0.003,
731,1,3595.146,-0.042,-0.022,0.99,0.0,0.0,0.0,14,-11,-14,2.54,-1.25,-0.29,1.0,-0.011,0.022,-0.003,
732,1,3595.156,-0.046,-0.021,0.986,0.0,0.0,0.0,15,-11,-14,2.54,-1.25,-0.29,1.0,-0.011,0.022,-0.003,
733,1,3595.166,-0.044,-0.019,0.986,0.0,0.0,0.0,15,-11,-14,2.54,-1.25,-0.29,1.0,-0.011,0.022,-0.003,
734,1,3595.176,-0.041,-0.021,0.99,0.0,0.0,0.0,14,-11,-14,2.54,-1.25,-0.29,1.0,-0.011,0.022,-0.003,
735,1,3595.186,-0.042,-0.023,0.989,0.0,0.0,0.0,14,-11,-13,2.54,-1.25,-0.29,1.0,-0.011,0.022,-0.003,
736,1,3595.196,-0.048,-0.02,0.99,0.0,0.0,0.0,15,-11,-14,2.54,-1.25,-0.29,1.0,-0.011,0.022,-0.003,
737,1,3595.206,-0.043,-0.023,0.983,0.0,0.0,0.0,14,-11,-14,2.54,-1.25,-0.29,1.0,-0.011,0.022,-0.003,
738,1,3595.216,-0.048,-0.027,0.981,0.0,0.0,0.0,14,-11,-14,2.54,-1.25,-0.29,1.0,-0.011,0.022,-0.003,
739,1,3595.226,-0.043,-0.022,0.989,0.0,0.0,0.0,14,-11,-14,2.54,-1.25,-0.29,1.0,-0.011,0.022,-0.003,
740,1,3595.236,-0.042,-0.021,0.992,0.0,0.0,0.0,14,-11,-14,2.54,-1.25,-0.29,1.0,-0.011,0.022,-0.003,
741,1,3595.246,-0.049,-0.021,0.986,0.0,0.0,0.0,14,-11,-14,2.54,-1.25,-0.29,1.0,-0.011,0.022,-0.003,
742,1,3595.256,-0.048,-0.023,0.984,0.0,0.0,0.0,14,-11,-14,2.54,-1.25,-0.29,1.0,-0.011,0.022,-0.003,
743,1,3595.266,-0.042,-0.019,0.988,0.0,0.0,0.0,15,-11,-14,2.54,-1.25,-0.29,1.0,-0.011,0.022,-0.003,
744,1,3595.276,-0.039,-0.023,0.985,0.0,0.0,0.0,15,-11,-14,2.54,-1.25,-0.29,1.0,-0.011,0.022,-0.003,
745,1,3595.286,-0.045,-0.021,0.986,0.0,0.0,0.0,14,-11,-14,2.54,-1.25,-0.29,1.0,-0.011,0.022,-0.003,
746,1,3595.296,-0.043,-0.021,0.981,0.0,0.0,0.0,14,-11,-14,2.54,-1.25,-0.29,1.0,-0.011,0.022,-0.003,
747,1,3595.306,-0.043,-0.022,0.99,0.0,0.0,0.0,15,-11,-14,2.54,-1.25,-0.29,1.0,-0.011,0.022,-0.003,
748,1,3595.316,-0.044,-0.025,0.987,0.0,0.0,0.0,15,-11,-14,2.54,-1.25,-0.29,1.0,-0.011,0.022,-0.003,
749,1,3595.326,-0.046,-0.018,0.984,0.0,0.0,0.0,14,-11,-14,2.54,-1.26,-0.29,1.0,-0.011,0.022,-0.003,
750,1,3595.336,-0.047,-0.024,0.989,0.0,0.0,0.0,14,-11,-14,2.54,-1.25,-0.29,1.0,-0.011,0.022,-0.003,
751,1,3595.346,-0.042,-0.025,0.992,0.0,0.0,0.0,14,-12,-14,2.54,-1.25,-0.29,1.0,-0.011,0.022,-0.003,
752,1,3595.356,-0.042,-0.024,0.991,0.0,0.0,0.0,15,-11,-14,2.54,-1.25,-0.29,1.0,-0.011,0.022,-0.003,
753,1,3595.366,-0.044,-0.02,0.984,0.0,0.0,0.0,15,-11,-14,2.54,-1.26,-0.29,1.0,-0.011,0.022,-0.003,
754,1,3595.376,-0.042,-0.021,0.987,0.0,0.0,0.0,15,-11,-14,2.54,-1.25,-0.29,1.0,-0.011,0.022,-0.003,
755,1,3595.386,-0.047,-0.024,0.987,0.0,0.0,0.0,15,-11,-14,2.54,-1.25,-0.29,1.0,-0.011,0.022,-0.003,
756,1,3595.396,-0.042,-0.018,0.991,0.0,0.0,0.0,14,-11,-14,2.54,-1.26,-0.29,1.0,-0.011,0.022,-0.003,
757,1,3595.406,-0.045,-0.017,0.985,0.0,0.0,0.0,14,-12,-14,2.54,-1.26,-0.29,1.0,-0.011,0.022,-0.003,
758,1,3595.416,-0.042,-0.025,0.988,0.0,0.0,0.0,14,-11,-14,2.54,-1.26,-0.29,1.0,-0.011,0.022,-0.003,
759,1,3595.426,-0.045,-0.02,0.99,0.0,0.0,0.0,14,-11,-13,2.54,-1.26,-0.29,1.0,-0.011,0.022,-0.003,
760,1,3595.436,-0.042,-0.021,0.982,0.0,0.0,0.0,14,-11,-14,2.54,-1.25,-0.29,1.0,-0.011,0.022,-0.003,
761,1,3595.446,-0.046,-0.021,0.985,0.0,0.0,0.0,15,-11,-14,2.54,-1.25,-0.29,1.0,-0.011,0.022,-0.003,
762,1,3595.456,-0.044,-0.02,0.988,0.0,0.0,0.0,14,-11,-14,2.54,-1.25,-0.29,1.0,-0.011,0.022,-0.003,
763,1,3595.466,-0.038,-0.025,0.991,0.0,0.0,0.0,14,-11,-14,2.54,-1.25,-0.29,1.0,-0.011,0.022,-0.003,
764,1,3595.476,-0.042,-0.022,0.991,0.0,0.0,0.0,15,-12,-14,2.54,-1.25,-0.29,1.0,-0.011,0.022,-0.003,
765,1,3595.486,-0.044,-0.021,0.987,0.0,0.0,0.0,14,-11,-14,2.54,-1.25,-0.29,1.0,-0.011,0.022,-0.003,
766,1,3595.496,-0.039,-0.018,0.984,0.0,0.0,0.0,15,-11,-14,2.53,-1.25,-0.29,1.0,-0.011,0.022,-0.003,
767,1,3595.506,-0.045,-0.022,0.988,0.0,0.0,0.0,14,-11,-13,2.53,-1.25,-0.29,1.0,-0.011,0.022,-0.003,
768,1,3595.516,-0.043,-0.024,0.987,0.0,0.0,0.0,14,-11,-14,2.53,-1.25,-0.29,1.0,-0.011,0.022,-0.003,
769,1,3595.526,-0.046,-0.019,0.979,0.0,0.0,0.0,14,-11,-14,2.53,-1.25,-0.29,1.0,-0.011,0.022,-0.003,
770,1,3595.536,-0.041,-0.02,0.99,0.0,0.0,0.0,14,-11,-14,2.53,-1.25,-0.29,1.0,-0.011,0.022,-0.003,
771,1,3595.546,-0.044,-0.024,0.986,0.0,0.0,0.0,14,-12,-14,2.53,-1.25,-0.29,1.0,-0.011,0.022,-0.003,
772,1,3595.556,-0.045,-0.022,0.987,0.0,0.0,0.0,14,-11,-13,2.53,-1.25,-0.29,1.0,-0.011,0.022,-0.003,
773,1,3595.566,-0.043,-0.02,0.985,0.0,0.0,0.0,14,-11,-14,2.53,-1.25,-0.29,1.0,-0.011,0.022,-0.003,
774,1,3595.576,-0.044,-0.024,0.985,0.0,0.0,0.0,14,-12,-13,2.53,-1.25,-0.29,1.0,-0.011,0.022,-0.003,
775,1,3595.586,-0.045,-0.022,0.987,0.0,0.0,0.0,14,-11,-13,2.53,-1.25,-0.29,1.0,-0.011,0.022,-0.003,
776,1,3595.596,-0.044,-0.021,0.99,0.0,0.0,0.0,14,-12,-14,2.53,-1.25,-0.29,1.0,-0.011,0.022,-0.003,
777,1,3595.606,-0.042,-0.021,0.988,0.0,0.0,0.0,15,-11,-14,2.53,-1.25,-0.29,1.0,-0.011,0.022,-0.003,
778,1,3595.616,-0.046,-0.025,0.987,0.0,0.0,0.0,15,-11,-13,2.53,-1.25,-0.29,1.0,-0.011,0.022,-0.003,
779,1,3595.626,-0.045,-0.023,0.984,0.0,0.0,0.0,15,-11,-14,2.53,-1.25,-0.29,1.0,-0.011,0.022,-0.003,
780,1,3595.636,-0.045,-0.017,0.99,0.0,0.0,0.0,15,-12,-14,2.53,-1.25,-0.29,1.0,-0.011,0.022,-0.003,
781,1,3595.646,-0.048,-0.026,0.984,0.0,0.0,0.0,14,-11,-14,2.53,-1.25,-0.29,1.0,-0.011,0.022,-0.003,
782,1,3595.656,-0.044,-0.021,0.983,0.0,0.0,0.0,14,-11,-13,2.53,-1.25,-0.29,1.0,-0.011,0.022,-0.003,
783,1,3595.666,-0.042,-0.023,0.99,0.0,0.0,0.0,14,-11,-13,2.54,-1.25,-0.29,1.0,-0.011,0.022,-0.003,
784,1,3595.676,-0.047,-0.021,0.984,0.0,0.0,0.0,14,-11,-13,2.53,-1.25,-0.29,1.0,-0.011,0.022,-0.003,
785,1,3595.686,-0.046,-0.02,0.99,0.0,0.0,0.0,14,-11,-14,2.53,-1.25,-0.29,1.0,-0.011,0.022,-0.003,
786,1,3595.696,-0.041,-0.021,0.99,0.0,0.0,0.0,14,-11,-14,2.54,-1.25,-0.29,1.0,-0.011,0.022,-0.003,
787,1,3595.706,-0.043,-0.021,0.99,0.0,0.0,0.0,14,-11,-14,2.54,-1.25,-0.29,1.0,-0.011,0.022,-0.003,
788,1,3595.716,-0.044,-0.02,0.985,0.0,0.0,0.0,14,-11,-14,2.53,-1.25,-0.29,1.0,-0.011,0.022,-0.003,
789,1,3595.726,-0.046,-0.021,0.988,0.0,0.0,0.0,15,-11,-14,2.53,-1.25,-0.29,1.0,-0.011,0.022,-0.003,
790,1,3595.736,-0.044,-0.019,0.985,0.0,0.0,0.0,15,-11,-14,2.54,-1.25,-0.29,1.0,-0.011,0.022,-0.003,
791,1,3595.746,-0.043,-0.024,0.984,0.0,0.0,0.0,15,-11,-14,2.53,-1.25,-0.29,1.0,-0.011,0.022,-0.003,
792,1,3595.756,-0.045,-0.02,0.984,0.0,0.0,0.0,14,-11,-13,2.53,-1.25,-0.29,1.0,-0.011,0.022,-0.003,
793,1,3595.766,-0.046,-0.02,0.987,0.0,0.0,0.0,14,-11,-13,2.53,-1.25,-0.29,1.0,-0.011,0.022,-0.003,
794,1,3595.776,-0.045,-0.021,0.985,0.0,0.0,0.0,14,-11,-13,2.53,-1.25,-0.29,1.0,-0.011,0.022,-0.003,
795,1,3595.786,-0.043,-0.026,0.986,0.0,0.0,0.0,14,-11,-14,2.53,-1.25,-0.29,1.0,-0.011,0.022,-0.003,
796,1,3595.796,-0.046,-0.02,0.983,0.0,0.0,0.0,14,-11,-14,2.53,-1.25,-0.29,1.0,-0.011,0.022,-0.003,
797,1,3595.806,-0.047,-0.024,0.989,0.0,0.0,0.0,14,-12,-14,2.53,-1.25,-0.29,1.0,-0.011,0.022,-0.003,
798,1,3595.816,-0.043,-0.023,0.987,0.0,0.0,0.0,14,-11,-14,2.54,-1.25,-0.29,1.0,-0.011,0.022,-0.003,
799,1,3595.826,-0.041,-0.022,0.984,0.0,0.0,0.0,14,-11,-14,2.54,-1.25,-0.29,1.0,-0.011,0.022,-0.003,
800,1,3595.836,-0.044,-0.018,0.984,0.0,0.0,0.0,15,-11,-14,2.53,-1.25,-0.29,1.0,-0.011,0.022,-0.003,
801,1,3595.846,-0.042,-0.022,0.988,0.0,0.0,0.0,15,-11,-14,2.53,-1.25,-0.29,1.0,-0.011,0.022,-0.003,
802,1,3595.856,-0.046,-0.026,0.985,0.0,0.0,0.0,15,-11,-14,2.53,-1.25,-0.29,1.0,-0.011,0.022,-0.003,
803,1,3595.866,-0.041,-0.02,0.99,0.0,0.0,0.0,15,-11,-13,2.53,-1.25,-0.29,1.0,-0.011,0.022,-0.003,
804,1,3595.876,-0.051,-0.018,0.983,0.0,0.0,0.0,15,-11,-14,2.53,-1.25,-0.29,1.0,-0.011,0.022,-0.003,
805,1,3595.886,-0.043,-0.021,0.989,0.0,0.0,0.0,15,-11,-13,2.53,-1.25,-0.29,1.0,-0.011,0.022,-0.003,
806,1,3595.896,-0.042,-0.021,0.989,0.0,0.0,0.0,15,-11,-13,2.53,-1.25,-0.29,1.0,-0.011,0.022,-0.003,
807,1,3595.906,-0.041,-0.021,0.991,0.0,0.0,0.0,14,-11,-14,2.53,-1.25,-0.29,1.0,-0.011,0.022,-0.003,
808,1,3595.916,-0.043,-0.019,0.988,0.0,0.0,0.0,14,-12,-14,2.53,-1.25,-0.29,1.0,-0.011,0.022,-0.003,
809,1,3595.926,-0.042,-0.022,0.984,0.0,0.0,0.0,14,-11,-14,2.53,-1.25,-0.29,1.0,-0.011,0.022,-0.003,
810,1,3595.936,-0.039,-0.024,0.99,0.0,0.0,0.0,14,-11,-14,2.53,-1.25,-0.29,1.0,-0.011,0.022,-0.003,
811,1,3595.946,-0.047,-0.022,0.99,0.0,0.0,0.0,14,-11,-14,2.53,-1.25,-0.29,1.0,-0.011,0.022,-0.003,
812,1,3595.956,-0.05,-0.021,0.985,0.0,0.0,0.0,15,-11,-14,2.53,-1.25,-0.29,1.0,-0.011,0.022,-0.003,
813,1,3595.966,-0.043,-0.017,0.991,0.0,0.0,0.0,14,-11,-14,2.53,-1.25,-0.29,1.0,-0.011,0.022,-0.003,
814,1,3595.976,-0.039,-0.023,0.992,0.0,0.0,0.0,15,-11,-14,2.53,-1.25,-0.29,1.0,-0.011,0.022,-0.003,
815,1,3595.986,-0.05,-0.022,0.985,0.0,0.0,0.0,14,-11,-14,2.53,-1.25,-0.29,1.0,-0.011,0.022,-0.003,
816,1,3595.996,-0.048,-0.019,0.985,0.0,0.0,0.0,14,-11,-14,2.53,-1.26,-0.29,1.0,-0.011,0.022,-0.003,
817,1,3596.006,-0.05,-0.02,0.984,0.0,0.0,0.0,14,-11,-13,2.53,-1.25,-0.29,1.0,-0.011,0.022,-0.003,
818,1,3596.016,-0.033,-0.026,0.99,0.0,0.0,0.0,14,-11,-14,2.53,-1.25,-0.29,1.0,-0.011,0.022,-0.003,
819,1,3596.026,-0.043,-0.02,0.987,0.0,0.0,0.0,14,-11,-14,2.53,-1.25,-0.29,1.0,-0.011,0.022,-0.003,
820,1,3596.036,-0.042,-0.022,0.987,0.0,0.0,0.0,14,-11,-13,2.53,-1.25,-0.29,1.0,-0.011,0.022,-0.003,
821,1,3596.046,-0.044,-0.021,0.986,0.0,0.0,0.0,14,-11,-13,2.53,-1.25,-0.29,1.0,-0.011,0.022,-0.003,
822,1,3596.056,-0.045,-0.028,0.984,0.0,0.0,0.0,15,-11,-13,2.53,-1.25,-0.29,1.0,-0.011,0.022,-0.003,
823,1,3596.066,-0.044,-0.022,0.992,0.0,0.0,0.0,15,-11,-14,2.53,-1.25,-0.29,1.0,-0.011,0.022,-0.003,
824,1,3596.076,-0.047,-0.02,0.988,0.0,0.0,0.0,15,-11,-14,2.53,-1.25,-0.29,1.0,-0.011,0.022,-0.003,
825,1,3596.086,-0.043,-0.022,0.996,0.0,0.0,0.0,15,-11,-14,2.53,-1.25,-0.29,1.0,-0.011,0.022,-0.003,
826,1,3596.096,-0.042,-0.024,0.992,0.0,0.0,0.0,15,-11,-14,2.53,-1.25,-0.29,1.0,-0.011,0.022,-0.003,
827,1,3596.106,-0.048,-0.017,0.978,0.0,0.0,0.0,14,-11,-14,2.53,-1.25,-0.29,1.0,-0.011,0.022,-0.003,
828,1,3596.116,-0.045,-0.023,0.993,0.0,0.0,0.0,14,-11,-14,2.53,-1.25,-0.29,1.0,-0.011,0.022,-0.003,
829,1,3596.126,-0.042,-0.021,0.99,0.0,0.0,0.0,14,-11,-14,2.53,-1.25,-0.29,1.0,-0.011,0.022,-0.003,
830,1,3596.136,-0.045,-0.02,0.982,0.0,0.0,0.0,15,-11,-14,2.53,-1.25,-0.29,1.0,-0.011,0.022,-0.003,
831,1,3596.147,-0.042,-0.02,0.983,0.0,0.0,0.0,15,-11,-14,2.53,-1.25,-0.29,1.0,-0.011,0.022,-0.003,
832,1,3596.157,-0.044,-0.023,0.99,0.0,0.0,0.0,15,-11,-14,2.53,-1.25,-0.29,1.0,-0.011,0.022,-0.003,
833,1,3596.167,-0.044,-0.022,0.992,0.0,0.0,0.0,14,-11,-14,2.53,-1.25,-0.29,1.0,-0.011,0.022,-0.003,
834,1,3596.177,-0.042,-0.022,0.991,0.0,0.0,0.0,15,-11,-14,2.53,-1.25,-0.29,1.0,-0.011,0.022,-0.003,
835,1,3596.187,-0.044,-0.018,0.99,0.0,0.0,0.0,14,-11,-14,2.53,-1.25,-0.29,1.0,-0.011,0.022,-0.003,
836,1,3596.197,-0.044,-0.021,0.99,0.0,0.0,0.0,14,-11,-14,2.53,-1.25,-0.29,1.0,-0.011,0.022,-0.003,
837,1,3596.207,-0.039,-0.023,0.99,0.0,0.0,0.0,14,-11,-14,2.53,-1.25,-0.29,1.0,-0.011,0.022,-0.003,
838,1,3596.217,-0.045,-0.025,0.99,0.0,0.0,0.0,15,-11,-14,2.53,-1.25,-0.29,1.0,-0.011,0.022,-0.003,
839,1,3596.227,-0.047,-0.017,0.983,0.0,0.0,0.0,14,-11,-14,2.53,-1.25,-0.29,1.0,-0.011,0.022,-0.003,
840,1,3596.237,-0.043,-0.023,0.985,0.0,0.0,0.0,14,-11,-14,2.53,-1.25,-0.29,1.0,-0.011,0.022,-0.003,
841,1,3596.246,-0.043,-0.02,0.988,0.0,0.0,0.0,14,-11,-14,2.53,-1.25,-0.29,1.0,-0.011,0.022,-0.003,
842,1,3596.256,-0.04,-0.025,0.989,0.0,0.0,0.0,15,-12,-14,2.53,-1.25,-0.29,1.0,-0.011,0.022,-0.003,
843,1,3596.266,-0.048,-0.017,0.987,0.0,0.0,0.0,15,-11,-14,2.53,-1.25,-0.29,1.0,-0.011,0.022,-0.003,
844,1,3596.276,-0.043,-0.02,0.98,0.0,0.0,0.0,14,-11,-14,2.53,-1.25,-0.29,1.0,-0.011,0.022,-0.003,
845,1,3596.287,-0.042,-0.026,0.996,0.0,0.0,0.0,15,-11,-14,2.53,-1.25,-0.29,1.0,-0.011,0.022,-0.003,
846,1,3596.296,-0.048,-0.021,0.985,0.0,0.0,0.0,15,-11,-14,2.53,-1.25,-0.29,1.0,-0.011,0.022,-0.003,
847,1,3596.306,-0.046,-0.018,0.988,0.0,0.0,0.0,14,-11,-14,2.53,-1.25,-0.29,1.0,-0.011,0.022,-0.003,
848,1,3596.317,-0.04,-0.021,0.99,0.0,0.0,0.0,14,-11,-14,2.53,-1.25,-0.29,1.0,-0.011,0.022,-0.003,
849,1,3596.327,-0.041,-0.024,0.984,0.0,0.0,0.0,14,-11,-14,2.53,-1.25,-0.29,1.0,-0.011,0.022,-0.003,
850,1,3596.337,-0.046,-0.019,0.989,0.0,0.0,0.0,14,-11,-14,2.53,-1.25,-0.29,1.0,-0.011,0.022,-0.003,
851,1,3596.347,-0.043,-0.021,0.985,0.0,0.0,0.0,14,-11,-14,2.53,-1.25,-0.29,1.0,-0.011,0.022,-0.003,
852,1,3596.357,-0.044,-0.024,0.99,0.0,0.0,0.0,14,-11,-14,2.53,-1.25,-0.29,1.0,-0.011,0.022,-0.003,
853,1,3596.367,-0.044,-0.019,0.988,0.0,0.0,0.0,14,-11,-14,2.53,-1.25,-0.29,1.0,-0.011,0.022,-0.003,
854,1,3596.377,-0.045,-0.022,0.986,0.0,0.0,0.0,14,-11,-14,2.53,-1.25,-0.29,1.0,-0.011,0.022,-0.003,
855,1,3596.387,-0.046,-0.023,0.99,0.0,0.0,0.0,14,-11,-14,2.53,-1.25,-0.29,1.0,-0.011,0.022,-0.003,
856,1,3596.397,-0.047,-0.021,0.985,0.0,0.0,0.0,14,-11,-14,2.53,-1.25,-0.29,1.0,-0.011,0.022,-0.003,
857,1,3596.407,-0.048,-0.019,0.987,0.0,0.0,0.0,15,-11,-14,2.53,-1.25,-0.29,1.0,-0.011,0.022,-0.003,
858,1,3596.417,-0.043,-0.024,0.99,0.0,0.0,0.0,15,-11,-14,2.53,-1.25,-0.29,1.0,-0.011,0.022,-0.003,
859,1,3596.427,-0.042,-0.021,0.983,0.0,0.0,0.0,15,-11,-14,2.53,-1.25,-0.29,1.0,-0.011,0.022,-0.003,
860,1,3596.437,-0.048,-0.018,0.995,0.0,0.0,0.0,15,-11,-14,2.53,-1.25,-0.29,1.0,-0.011,0.022,-0.003,
861,1,3596.447,-0.043,-0.024,0.986,0.0,0.0,0.0,15,-11,-14,2.53,-1.25,-0.29,1.0,-0.011,0.022,-0.003,
862,1,3596.457,-0.043,-0.022,0.989,0.0,0.0,0.0,15,-11,-14,2.53,-1.25,-0.29,1.0,-0.011,0.022,-0.003,
863,1,3596.467,-0.046,-0.015,0.981,0.0,0.0,0.0,14,-11,-14,2.53,-1.25,-0.29,1.0,-0.011,0.022,-0.003,
864,1,3596.477,-0.045,-0.024,0.989,0.0,0.0,0.0,14,-11,-14,2.53,-1.25,-0.29,1.0,-0.011,0.022,-0.003,
865,1,3596.487,-0.043,-0.023,0.989,0.0,0.0,0.0,14,-11,-13,2.53,-1.25,-0.29,1.0,-0.011,0.022,-0.003,
866,1,3596.497,-0.044,-0.02,0.983,0.0,0.0,0.0,14,-12,-14,2.53,-1.25,-0.29,1.0,-0.011,0.022,-0.003,
867,1,3596.507,-0.042,-0.021,0.985,0.0,0.0,0.0,15,-11,-14,2.53,-1.25,-0.29,1.0,-0.011,0.022,-0.003,
868,1,3596.517,-0.044,-0.025,0.987,0.0,0.0,0.0,14,-12,-14,2.53,-1.25,-0.29,1.0,-0.011,0.022,-0.003,
869,1,3596.527,-0.047,-0.022,0.989,0.0,0.0,0.0,15,-11,-14,2.53,-1.25,-0.29,1.0,-0.011,0.022,-0.003,
870,1,3596.537,-0.048,-0.017,0.983,0.0,0.0,0.0,14,-11,-14,2.53,-1.25,-0.29,1.0,-0.011,0.022,-0.003,
871,1,3596.547,-0.042,-0.023,0.985,0.0,0.0,0.0,14,-11,-14,2.53,-1.25,-0.29,1.0,-0.011,0.022,-0.003,
872,1,3596.557,-0.048,-0.023,0.987,0.0,0.0,0.0,15,-11,-14,2.53,-1.25,-0.29,1.0,-0.011,0.022,-0.003,
873,1,3596.567,-0.045,-0.02,0.996,0.0,0.0,0.0,14,-11,-14,2.53,-1.25,-0.29,1.0,-0.011,0.022,-0.003,
874,1,3596.577,-0.046,-0.019,0.987,0.0,0.0,0.0,14,-12,-14,2.53,-1.25,-0.29,1.0,-0.011,0.022,-0.003,
875,1,3596.587,-0.041,-0.023,0.988,0.0,0.0,0.0,14,-11,-14,2.53,-1.25,-0.29,1.0,-0.011,0.022,-0.003,
876,1,3596.597,-0.046,-0.021,0.986,0.0,0.0,0.0,14,-11,-14,2.53,-1.25,-0.29,1.0,-0.011,0.022,-0.003,
877,1,3596.607,-0.042,-0.021,0.988,0.0,0.0,0.0,14,-11,-14,2.53,-1.25,-0.29,1.0,-0.011,0.022,-0.003,
878,1,3596.617,-0.046,-0.021,0.982,0.0,0.0,0.0,15,-11,-14,2.53,-1.25,-0.29,1.0,-0.011,0.022,-0.003,
879,1,3596.627,-0.039,-0.028,0.993,0.0,0.0,0.0,14,-11,-13,2.53,-1.25,-0.29,1.0,-0.011,0.022,-0.003,
880,1,3596.637,-0.043,-0.018,0.987,0.0,0.0,0.0,14,-11,-14,2.53,-1.25,-0.29,1.0,-0.011,0.022,-0.003,
881,1,3596.647,-0.045,-0.024,0.989,0.0,0.0,0.0,14,-11,-14,2.53,-1.25,-0.29,1.0,-0.011,0.022,-0.003,
882,1,3596.657,-0.043,-0.021,0.991,0.0,0.0,0.0,14,-11,-14,2.53,-1.25,-0.29,1.0,-0.011,0.022,-0.003,
883,1,3596.667,-0.045,-0.025,0.991,0.0,0.0,0.0,14,-11,-14,2.53,-1.25,-0.29,1.0,-0.011,0.022,-0.003,
884,1,3596.677,-0.042,-0.015,0.985,0.0,0.0,0.0,15,-11,-14,2.53,-1.25,-0.29,1.0,-0.011,0.022,-0.003,
885,1,3596.687,-0.041,-0.021,0.984,0.0,0.0,0.0,14,-11,-14,2.53,-1.25,-0.29,1.0,-0.011,0.022,-0.003,
886,1,3596.697,-0.043,-0.02,0.986,0.0,0.0,0.0,14,-11,-13,2.53,-1.25,-0.29,1.0,-0.011,0.022,-0.003,
887,1,3596.707,-0.046,-0.024,0.982,0.0,0.0,0.0,14,-11,-14,2.53,-1.25,-0.29,1.0,-0.011,0.022,-0.003,
888,1,3596.717,-0.039,-0.021,0.984,0.0,0.0,0.0,15,-11,-14,2.53,-1.25,-0.29,1.0,-0.011,0.022,-0.003,
889,1,3596.727,-0.052,-0.021,0.987,0.0,0.0,0.0,14,-11,-14,2.53,-1.25,-0.29,1.0,-0.011,0.022,-0.003,
890,1,3596.737,-0.042,-0.021,0.987,0.0,0.0,0.0,15,-12,-14,2.53,-1.25,-0.29,1.0,-0.011,0.022,-0.003,
891,1,3596.747,-0.044,-0.024,0.988,0.0,0.0,0.0,15,-11,-13,2.53,-1.25,-0.29,1.0,-0.011,0.022,-0.003,
892,1,3596.757,-0.044,-0.022,0.99,0.0,0.0,0.0,14,-11,-14,2.53,-1.25,-0.29,1.0,-0.011,0.022,-0.003,
893,1,3596.767,-0.041,-0.019,0.987,0.0,0.0,0.0,14,-11,-14,2.53,-1.25,-0.29,1.0,-0.011,0.022,-0.003,
894,1,3596.777,-0.045,-0.026,0.986,0.0,0.0,0.0,14,-11,-13,2.54,-1.25,-0.29,1.0,-0.011,0.022,-0.003,
895,1,3596.787,-0.048,-0.025,0.99,0.0,0.0,0.0,14,-11,-13,2.54,-1.25,-0.29,1.0,-0.011,0.022,-0.003,
896,1,3596.797,-0.045,-0.019,0.992,0.0,0.0,0.0,15,-11,-14,2.54,-1.25,-0.29,1.0,-0.011,0.022,-0.003,
897,1,3596.807,-0.044,-0.017,0.987,0.0,0.0,0.0,14,-11,-14,2.54,-1.25,-0.29,1.0,-0.011,0.022,-0.003,
898,1,3596.817,-0.036,-0.021,0.993,0.0,0.0,0.0,15,-11,-14,2.54,-1.25,-0.29,1.0,-0.011,0.022,-0.003,
899,1,3596.827,-0.046,-0.021,0.987,0.0,0.0,0.0,14,-11,-13,2.53,-1.25,-0.29,1.0,-0.011,0.022,-0.003,
900,1,3596.837,-0.039,-0.024,0.99,0.0,0.0,0.0,14,-11,-14,2.53,-1.25,-0.29,1.0,-0.011,0.022,-0.003,
901,1,3596.847,-0.044,-0.016,0.989,0.0,0.0,0.0,14,-11,-14,2.53,-1.25,-0.29,1.0,-0.011,0.022,-0.003,
902,1,3596.857,-0.041,-0.026,0.985,0.0,0.0,0.0,14,-11,-14,2.54,-1.25,-0.29,1.0,-0.011,0.022,-0.003,
903,1,3596.867,-0.048,-0.018,0.983,0.0,0.0,0.0,14,-11,-14,2.54,-1.25,-0.29,1.0,-0.011,0.022,-0.003,
904,1,3596.877,-0.045,-0.02,0.984,0.0,0.0,0.0,15,-11,-14,2.54,-1.25,-0.29,1.0,-0.011,0.022,-0.003,
905,1,3596.887,-0.045,-0.021,0.989,0.0,0.0,0.0,14,-11,-14,2.54,-1.25,-0.29,1.0,-0.011,0.022,-0.003,
906,1,3596.897,-0.043,-0.021,0.991,0.0,0.0,0.0,14,-11,-14,2.54,-1.25,-0.29,1.0,-0.011,0.022,-0.003,
907,1,3596.907,-0.046,-0.021,0.987,0.0,0.0,0.0,14,-11,-14,2.54,-1.25,-0.29,1.0,-0.011,0.022,-0.003,
908,1,3596.917,-0.047,-0.021,0.987,0.0,0.0,0.0,14,-11,-14,2.54,-1.25,-0.29,1.0,-0.011,0.022,-0.003,
909,1,3596.927,-0.046,-0.022,0.986,0.0,0.0,0.0,14,-11,-14,2.54,-1.25,-0.29,1.0,-0.011,0.022,-0.003,
910,1,3596.937,-0.039,-0.017,0.984,0.0,0.0,0.0,14,-11,-14,2.54,-1.25,-0.29,1.0,-0.011,0.022,-0.003,
911,1,3596.947,-0.041,-0.021,0.987,0.0,0.0,0.0,14,-11,-14,2.54,-1.25,-0.29,1.0,-0.011,0.022,-0.003,
912,1,3596.957,-0.047,-0.018,0.986,0.0,0.0,0.0,14,-11,-14,2.54,-1.25,-0.29,1.0,-0.011,0.022,-0.003,
913,1,3596.967,-0.042,-0.02,0.988,0.0,0.0,0.0,15,-11,-14,2.54,-1.25,-0.29,1.0,-0.011,0.022,-0.003,
914,1,3596.977,-0.041,-0.021,0.986,0.0,0.0,0.0,14,-12,-14,2.54,-1.25,-0.29,1.0,-0.011,0.022,-0.003,
915,1,3596.987,-0.044,-0.02,0.987,0.0,0.0,0.0,14,-11,-14,2.54,-1.24,-0.29,1.0,-0.011,0.022,-0.003,
916,1,3596.997,-0.044,-0.021,0.989,0.0,0.0,0.0,14,-11,-14,2.54,-1.24,-0.29,1.0,-0.011,0.022,-0.003,
917,1,3597.007,-0.047,-0.021,0.987,0.0,0.0,0.0,14,-11,-14,2.54,-1.24,-0.29,1.0,-0.011,0.022,-0.003,
918,1,3597.017,-0.042,-0.027,0.993,0.0,0.0,0.0,14,-11,-14,2.54,-1.24,-0.29,1.0,-0.011,0.022,-0.003,
919,1,3597.027,-0.048,-0.019,0.984,0.0,0.0,0.0,14,-11,-14,2.54,-1.24,-0.29,1.0,-0.011,0.022,-0.003,
920,1,3597.037,-0.047,-0.021,0.993,0.0,0.0,0.0,14,-11,-14,2.54,-1.24,-0.29,1.0,-0.011,0.022,-0.003,
921,1,3597.047,-0.04,-0.021,0.99,0.0,0.0,0.0,15,-11,-13,2.54,-1.24,-0.29,1.0,-0.011,0.022,-0.003,
922,1,3597.057,-0.037,-0.024,0.99,0.0,0.0,0.0,14,-11,-14,2.54,-1.24,-0.29,1.0,-0.011,0.022,-0.003,
923,1,3597.067,-0.048,-0.016,0.985,0.0,0.0,0.0,14,-11,-14,2.54,-1.24,-0.29,1.0,-0.011,0.022,-0.003,
924,1,3597.077,-0.044,-0.026,0.983,0.0,0.0,0.0,14,-12,-14,2.54,-1.24,-0.29,1.0,-0.011,0.022,-0.003,
925,1,3597.087,-0.044,-0.023,0.985,0.0,0.0,0.0,14,-11,-14,2.54,-1.24,-0.29,1.0,-0.011,0.022,-0.003,
926,1,3597.097,-0.046,-0.022,0.986,0.0,0.0,0.0,14,-11,-14,2.54,-1.24,-0.29,1.0,-0.011,0.022,-0.003,
927,1,3597.107,-0.041,-0.02,0.985,0.0,0.0,0.0,14,-11,-14,2.54,-1.24,-0.29,1.0,-0.011,0.022,-0.003,
928,1,3597.117,-0.047,-0.019,0.99,0.0,0.0,0.0,14,-11,-14,2.54,-1.24,-0.29,1.0,-0.011,0.022,-0.003,
929,1,3597.127,-0.046,-0.022,0.988,0.0,0.0,0.0,14,-11,-14,2.54,-1.24,-0.29,1.0,-0.011,0.022,-0.003,
930,1,3597.137,-0.042,-0.022,0.992,0.0,0.0,0.0,14,-11,-14,2.54,-1.25,-0.29,1.0,-0.011,0.022,-0.003,
931,1,3597.147,-0.046,-0.021,0.989,0.0,0.0,0.0,15,-11,-14,2.54,-1.25,-0.29,1.0,-0.011,0.022,-0.003,
932,1,3597.157,-0.045,-0.02,0.983,0.0,0.0,0.0,14,-12,-14,2.54,-1.24,-0.29,1.0,-0.011,0.022,-0.003,
933,1,3597.167,-0.045,-0.021,0.989,0.0,0.0,0.0,14,-11,-14,2.54,-1.24,-0.29,1.0,-0.011,0.022,-0.003,
934,1,3597.177,-0.044,-0.021,0.99,0.0,0.0,0.0,15,-11,-14,2.54,-1.24,-0.29,1.0,-0.011,0.022,-0.003,
935,1,3597.187,-0.043,-0.021,0.984,0.0,0.0,0.0,15,-11,-14,2.54,-1.24,-0.29,1.0,-0.011,0.022,-0.003,
936,1,3597.197,-0.046,-0.021,0.984,0.0,0.0,0.0,15,-11,-14,2.54,-1.24,-0.29,1.0,-0.011,0.022,-0.003,
937,1,3597.207,-0.042,-0.029,0.989,0.0,0.0,0.0,14,-11,-14,2.54,-1.25,-0.29,1.0,-0.011,0.022,-0.003,
938,1,3597.217,-0.043,-0.021,0.99,0.0,0.0,0.0,14,-12,-13,2.54,-1.25,-0.29,1.0,-0.011,0.022,-0.003,
939,1,3597.227,-0.05,-0.021,0.984,0.0,0.0,0.0,14,-11,-14,2.54,-1.25,-0.29,1.0,-0.011,0.022,-0.003,
940,1,3597.237,-0.043,-0.021,0.99,0.0,0.0,0.0,14,-11,-14,2.54,-1.25,-0.29,1.0,-0.011,0.022,-0.003,
941,1,3597.247,-0.042,-0.023,0.992,0.0,0.0,0.0,14,-11,-14,2.54,-1.24,-0.29,1.0,-0.011,0.022,-0.003,
942,1,3597.257,-0.043,-0.02,0.992,0.0,0.0,0.0,14,-11,-14,2.54,-1.25,-0.29,1.0,-0.011,0.022,-0.003,
943,1,3597.267,-0.045,-0.021,0.99,0.0,0.0,0.0,14,-11,-14,2.54,-1.25,-0.29,1.0,-0.011,0.022,-0.003,
944,1,3597.277,-0.044,-0.025,0.988,0.0,0.0,0.0,14,-11,-14,2.54,-1.25,-0.29,1.0,-0.011,0.022,-0.003,
945,1,3597.287,-0.043,-0.025,0.989,0.0,0.0,0.0,14,-11,-14,2.54,-1.25,-0.29,1.0,-0.011,0.022,-0.003,
946,1,3597.297,-0.044,-0.017,0.982,0.0,0.0,0.0,14,-11,-14,2.54,-1.25,-0.29,1.0,-0.011,0.022,-0.003,
947,1,3597.307,-0.045,-0.021,0.984,0.0,0.0,0.0,14,-11,-14,2.54,-1.25,-0.29,1.0,-0.011,0.022,-0.003,
948,1,3597.317,-0.042,-0.022,0.982,0.0,0.0,0.0,14,-11,-14,2.54,-1.25,-0.29,1.0,-0.011,0.022,-0.003,
949,1,3597.327,-0.046,-0.024,0.988,0.0,0.0,0.0,14,-11,-14,2.54,-1.25,-0.29,1.0,-0.011,0.022,-0.003,
950,1,3597.337,-0.04,-0.014,0.983,0.0,0.0,0.0,14,-11,-14,2.54,-1.25,-0.29,1.0,-0.011,0.022,-0.003,
951,1,3597.347,-0.046,-0.021,0.988,0.0,0.0,0.0,14,-11,-14,2.54,-1.25,-0.29,1.0,-0.011,0.022,-0.003,
952,1,3597.357,-0.05,-0.022,0.989,0.0,0.0,0.0,14,-11,-14,2.54,-1.25,-0.29,1.0,-0.011,0.022,-0.003,
953,1,3597.367,-0.041,-0.024,0.991,0.0,0.0,0.0,15,-11,-14,2.54,-1.25,-0.29,1.0,-0.011,0.022,-0.003,
954,1,3597.377,-0.041,-0.021,0.982,0.0,0.0,0.0,14,-12,-14,2.54,-1.25,-0.29,1.0,-0.011,0.022,-0.003,
955,1,3597.387,-0.048,-0.021,0.989,0.0,0.0,0.0,15,-11,-13,2.54,-1.25,-0.29,1.0,-0.011,0.022,-0.003,
956,1,3597.397,-0.044,-0.025,0.989,0.0,0.0,0.0,14,-11,-14,2.54,-1.25,-0.29,1.0,-0.011,0.022,-0.003,
957,1,3597.407,-0.041,-0.021,0.988,0.0,0.0,0.0,14,-11,-14,2.54,-1.25,-0.29,1.0,-0.011,0.022,-0.003,
958,1,3597.417,-0.042,-0.018,0.991,0.0,0.0,0.0,14,-11,-14,2.54,-1.25,-0.29,1.0,-0.011,0.022,-0.003,
959,1,3597.427,-0.045,-0.021,0.986,0.0,0.0,0.0,14,-11,-14,2.54,-1.25,-0.29,1.0,-0.011,0.022,-0.003,
960,1,3597.437,-0.041,-0.023,0.987,0.0,0.0,0.0,15,-11,-14,2.54,-1.25,-0.29,1.0,-0.011,0.022,-0.003,
961,1,3597.447,-0.042,-0.021,0.988,0.0,0.0,0.0,14,-11,-14,2.54,-1.25,-0.29,1.0,-0.011,0.022,-0.003,
962,1,3597.457,-0.05,-0.021,0.984,0.0,0.0,0.0,15,-11,-14,2.54,-1.25,-0.29,1.0,-0.011,0.022,-0.003,
963,1,3597.467,-0.043,-0.02,0.987,0.0,0.0,0.0,14,-11,-14,2.54,-1.25,-0.29,1.0,-0.011,0.022,-0.003,
964,1,3597.477,-0.032,-0.025,0.992,0.0,0.0,0.0,14,-11,-14,2.54,-1.25,-0.29,1.0,-0.011,0.022,-0.003,
965,1,3597.487,-0.049,-0.026,0.988,0.0,0.0,0.0,14,-11,-14,2.54,-1.25,-0.29,1.0,-0.011,0.022,-0.003,
966,1,3597.497,-0.046,-0.019,0.984,0.0,0.0,0.0,14,-11,-14,2.54,-1.25,-0.29,1.0,-0.011,0.022,-0.003,
967,1,3597.507,-0.037,-0.021,0.994,0.0,0.0,0.0,14,-11,-14,2.54,-1.25,-0.29,1.0,-0.011,0.022,-0.003,
968,1,3597.517,-0.042,-0.021,0.988,0.0,0.0,0.0,14,-11,-13,2.54,-1.25,-0.29,1.0,-0.011,0.022,-0.003,
969,1,3597.527,-0.045,-0.019,0.986,0.0,0.0,0.0,14,-11,-14,2.54,-1.25,-0.29,1.0,-0.011,0.022,-0.003,
970,1,3597.537,-0.045,-0.016,0.984,0.0,0.0,0.0,14,-11,-13,2.54,-1.25,-0.29,1.0,-0.011,0.022,-0.003,
971,1,3597.547,-0.046,-0.021,0.988,0.0,0.0,0.0,14,-11,-14,2.54,-1.25,-0.29,1.0,-0.011,0.022,-0.003,
972,1,3597.557,-0.039,-0.023,0.99,0.0,0.0,0.0,14,-11,-14,2.54,-1.24,-0.29,1.0,-0.011,0.022,-0.003,
973,1,3597.567,-0.043,-0.022,0.986,0.0,0.0,0.0,15,-11,-14,2.54,-1.25,-0.29,1.0,-0.011,0.022,-0.003,
974,1,3597.577,-0.044,-0.021,0.985,0.0,0.0,0.0,14,-11,-13,2.54,-1.25,-0.29,1.0,-0.011,0.022,-0.003,
975,1,3597.587,-0.044,-0.021,0.988,0.0,0.0,0.0,15,-11,-14,2.54,-1.25,-0.29,1.0,-0.011,0.022,-0.003,
976,1,3597.597,-0.042,-0.027,0.994,0.0,0.0,0.0,15,-11,-13,2.54,-1.24,-0.29,1.0,-0.011,0.022,-0.003,
977,1,3597.607,-0.042,-0.022,0.989,0.0,0.0,0.0,14,-11,-14,2.54,-1.25,-0.29,1.0,-0.011,0.022,-0.003,
978,1,3597.617,-0.046,-0.02,0.986,0.0,0.0,0.0,14,-11,-14,2.54,-1.25,-0.29,1.0,-0.011,0.022,-0.003,
979,1,3597.627,-0.044,-0.021,0.992,0.0,0.0,0.0,15,-12,-14,2.54,-1.25,-0.29,1.0,-0.011,0.022,-0.003,
980,1,3597.637,-0.041,-0.023,0.987,0.0,0.0,0.0,15,-12,-13,2.54,-1.25,-0.29,1.0,-0.011,0.022,-0.003,
981,1,3597.647,-0.045,-0.016,0.989,0.0,0.0,0.0,15,-12,-14,2.54,-1.25,-0.29,1.0,-0.011,0.022,-0.003,
982,1,3597.657,-0.04,-0.021,0.988,0.0,0.0,0.0,14,-11,-14,2.54,-1.25,-0.29,1.0,-0.011,0.022,-0.003,
983,1,3597.667,-0.042,-0.024,0.99,0.0,0.0,0.0,15,-11,-14,2.54,-1.25,-0.29,1.0,-0.011,0.022,-0.003,
984,1,3597.677,-0.043,-0.021,0.986,0.0,0.0,0.0,15,-11,-14,2.54,-1.25,-0.29,1.0,-0.011,0.022,-0.003,
985,1,3597.687,-0.045,-0.021,0.984,0.0,0.0,0.0,14,-11,-14,2.54,-1.25,-0.29,1.0,-0.011,0.022,-0.003,
986,1,3597.697,-0.046,-0.02,0.988,0.0,0.0,0.0,14,-11,-13,2.54,-1.25,-0.29,1.0,-0.011,0.022,-0.003,
987,1,3597.707,-0.042,-0.021,0.99,0.0,0.0,0.0,14,-11,-14,2.54,-1.25,-0.29,1.0,-0.011,0.022,-0.003,
988,1,3597.717,-0.044,-0.025,0.99,0.0,0.0,0.0,15,-11,-14,2.54,-1.25,-0.29,1.0,-0.011,0.022,-0.003,
989,1,3597.727,-0.041,-0.018,0.99,0.0,0.0,0.0,14,-11,-14,2.54,-1.25,-0.29,1.0,-0.011,0.022,-0.003,
990,1,3597.737,-0.045,-0.02,0.985,0.0,0.0,0.0,14,-11,-14,2.54,-1.25,-0.29,1.0,-0.011,0.022,-0.003,
991,1,3597.747,-0.041,-0.023,0.988,0.0,0.0,0.0,14,-11,-13,2.54,-1.25,-0.29,1.0,-0.011,0.022,-0.003,
992,1,3597.757,-0.043,-0.026,0.989,0.0,0.0,0.0,14,-11,-14,2.54,-1.25,-0.29,1.0,-0.011,0.022,-0.003,
993,1,3597.767,-0.048,-0.018,0.986,0.0,0.0,0.0,14,-12,-14,2.54,-1.25,-0.29,1.0,-0.011,0.022,-0.003,
994,1,3597.777,-0.045,-0.019,0.983,0.0,0.0,0.0,14,-11,-14,2.54,-1.25,-0.29,1.0,-0.011,0.022,-0.003,
995,1,3597.787,-0.043,-0.024,0.99,0.0,0.0,0.0,14,-11,-14,2.54,-1.25,-0.29,1.0,-0.011,0.022,-0.003,
996,1,3597.797,-0.042,-0.024,0.989,0.0,0.0,0.0,15,-11,-14,2.54,-1.25,-0.29,1.0,-0.011,0.022,-0.003,
997,1,3597.807,-0.041,-0.021,0.985,0.0,0.0,0.0,14,-11,-14,2.54,-1.25,-0.29,1.0,-0.011,0.022,-0.003,
998,1,3597.817,-0.047,-0.019,0.984,0.0,0.0,0.0,14,-11,-14,2.54,-1.25,-0.29,1.0,-0.011,0.022,-0.003,
999,1,3597.827,-0.044,-0.025,0.991,0.0,0.0,0.0,15,-11,-14,2.54,-1.25,-0.29,1.0,-0.011,0.022,-0.003,
1000,1,3597.837,-0.041,-0.02,0.987,0.0,0.0,0.0,14,-11,-14,2.54,-1.25,-0.29,1.0,-0.011,0.022,-0.003,
1001,1,3597.847,-0.044,-0.021,0.988,0.0,0.0,0.0,15,-11,-14,2.54,-1.25,-0.29,1.0,-0.011,0.022,-0.003,
1002,1,3597.857,-0.044,-0.021,0.983,0.0,0.0,0.0,14,-11,-14,2.54,-1.25,-0.29,1.0,-0.011,0.022,-0.003,
1003,1,3597.867,-0.041,-0.025,0.991,0.0,0.0,0.0,14,-11,-14,2.54,-1.24,-0.29,1.0,-0.011,0.022,-0.003,
1004,1,3597.877,-0.041,-0.024,0.99,0.0,0.0,0.0,15,-11,-14,2.54,-1.25,-0.29,1.0,-0.011,0.022,-0.003,
1005,1,3597.887,-0.041,-0.02,0.987,0.0,0.0,0.0,14,-11,-14,2.53,-1.25,-0.29,1.0,-0.011,0.022,-0.003,
1006,1,3597.897,-0.043,-0.025,0.984,0.0,0.0,0.0,14,-11,-14,2.54,-1.25,-0.29,1.0,-0.011,0.022,-0.003,
1007,1,3597.907,-0.041,-0.024,0.987,0.0,0.0,0.0,14,-11,-14,2.54,-1.25,-0.29,1.0,-0.011,0.022,-0.003,
1008,1,3597.917,-0.043,-0.016,0.99,0.0,0.0,0.0,14,-11,-14,2.54,-1.25,-0.29,1.0,-0.011,0.022,-0.003,
1009,1,3597.927,-0.045,-0.024,0.982,0.0,0.0,0.0,14,-11,-14,2.54,-1.25,-0.29,1.0,-0.011,0.022,-0.003,
1010,1,3597.937,-0.043,-0.021,0.988,0.0,0.0,0.0,14,-11,-14,2.54,-1.25,-0.29,1.0,-0.011,0.022,-0.003,
1011,1,3597.947,-0.042,-0.021,0.989,0.0,0.0,0.0,14,-11,-14,2.54,-1.25,-0.29,1.0,-0.011,0.022,-0.003,
1012,1,3597.957,-0.044,-0.02,0.99,0.0,0.0,0.0,15,-11,-14,2.54,-1.25,-0.29,1.0,-0.011,0.022,-0.003,
1013,1,3597.967,-0.041,-0.02,0.986,0.0,0.0,0.0,14,-11,-14,2.54,-1.25,-0.29,1.0,-0.011,0.022,-0.003,
1014,1,3597.977,-0.042,-0.021,0.992,0.0,0.0,0.0,14,-11,-14,2.54,-1.25,-0.29,1.0,-0.011,0.022,-0.003,
1015,1,3597.987,-0.037,-0.022,0.989,0.0,0.0,0.0,14,-11,-14,2.54,-1.25,-0.29,1.0,-0.011,0.022,-0.003,
1016,1,3597.997,-0.049,-0.023,0.983,0.0,0.0,0.0,14,-11,-14,2.53,-1.25,-0.29,1.0,-0.011,0.022,-0.003,
1017,1,3598.007,-0.042,-0.021,0.982,0.0,0.0,0.0,14,-11,-14,2.54,-1.25,-0.29,1.0,-0.011,0.022,-0.003,
1018,1,3598.017,-0.04,-0.026,0.996,0.0,0.0,0.0,15,-12,-13,2.54,-1.25,-0.29,1.0,-0.011,0.022,-0.003,
1019,1,3598.027,-0.043,-0.021,0.988,0.0,0.0,0.0,15,-11,-14,2.54,-1.25,-0.29,1.0,-0.011,0.022,-0.003,
1020,1,3598.037,-0.046,-0.021,0.984,0.0,0.0,0.0,15,-11,-13,2.53,-1.25,-0.29,1.0,-0.011,0.022,-0.003,
1021,1,3598.047,-0.047,-0.021,0.983,0.0,0.0,0.0,14,-11,-14,2.53,-1.25,-0.29,1.0,-0.011,0.022,-0.003,
1022,1,3598.057,-0.045,-0.027,0.99,0.0,0.0,0.0,14,-11,-14,2.54,-1.25,-0.29,1.0,-0.011,0.022,-0.003,
1023,1,3598.067,-0.041,-0.024,0.988,0.0,0.0,0.0,14,-11,-14,2.53,-1.25,-0.29,1.0,-0.011,0.022,-0.003,
1024,1,3598.077,-0.045,-0.012,0.987,0.0,0.0,0.0,14,-11,-14,2.53,-1.25,-0.29,1.0,-0.011,0.022,-0.003,
1025,1,3598.087,-0.044,-0.023,0.99,0.0,0.0,0.0,15,-11,-14,2.54,-1.25,-0.29,1.0,-0.011,0.022,-0.003,
1026,1,3598.097,-0.041,-0.027,0.993,0.0,0.0,0.0,15,-12,-14,2.53,-1.24,-0.29,1.0,-0.011,0.022,-0.003,
1027,1,3598.107,-0.045,-0.021,0.989,0.0,0.0,0.0,14,-11,-14,2.53,-1.25,-0.29,1.0,-0.011,0.022,-0.003,
1028,1,3598.117,-0.046,-0.017,0.982,0.0,0.0,0.0,14,-12,-14,2.53,-1.25,-0.29,1.0,-0.011,0.022,-0.003,
1029,1,3598.127,-0.045,-0.022,0.985,0.0,0.0,0.0,15,-11,-14,2.53,-1.25,-0.29,1.0,-0.011,0.022,-0.003,
1030,1,3598.137,-0.043,-0.024,0.989,0.0,0.0,0.0,14,-12,-14,2.53,-1.25,-0.29,1.0,-0.011,0.022,-0.003,
1031,1,3598.147,-0.038,-0.021,0.99,0.0,0.0,0.0,15,-11,-13,2.53,-1.25,-0.29,1.0,-0.011,0.022,-0.003,
1032,1,3598.157,-0.039,-0.02,0.979,0.0,0.0,0.0,14,-11,-14,2.53,-1.25,-0.29,1.0,-0.011,0.022,-0.003,
1033,1,3598.167,-0.045,-0.02,0.989,0.0,0.0,0.0,14,-12,-14,2.53,-1.25,-0.29,1.0,-0.011,0.022,-0.003,
1034,1,3598.177,-0.043,-0.021,0.979,0.0,0.0,0.0,14,-12,-14,2.53,-1.25,-0.29,1.0,-0.011,0.022,-0.003,
1035,1,3598.187,-0.041,-0.024,0.991,0.0,0.0,0.0,14,-12,-14,2.53,-1.25,-0.29,1.0,-0.011,0.022,-0.003,
1036,1,3598.197,-0.045,-0.022,0.986,0.0,0.0,0.0,15,-11,-14,2.53,-1.25,-0.29,1.0,-0.011,0.022,-0.003,
1037,1,3598.207,-0.04,-0.021,0.991,0.0,0.0,0.0,15,-11,-14,2.53,-1.25,-0.29,1.0,-0.011,0.022,-0.003,
1038,1,3598.217,-0.045,-0.021,0.989,0.0,0.0,0.0,14,-11,-14,2.53,-1.25,-0.29,1.0,-0.011,0.022,-0.003,
1039,1,3598.227,-0.046,-0.027,0.991,0.0,0.0,0.0,14,-11,-14,2.53,-1.25,-0.29,1.0,-0.011,0.022,-0.003,
1040,1,3598.237,-0.046,-0.016,0.989,0.0,0.0,0.0,14,-11,-14,2.53,-1.25,-0.29,1.0,-0.011,0.022,-0.003,
1041,1,3598.247,-0.041,-0.023,0.99,0.0,0.0,0.0,15,-11,-14,2.53,-1.25,-0.29,1.0,-0.011,0.022,-0.003,
1042,1,3598.257,-0.044,-0.023,0.988,0.0,0.0,0.0,15,-11,-14,2.53,-1.24,-0.29,1.0,-0.011,0.022,-0.003,
1043,1,3598.267,-0.045,-0.021,0.985,0.0,0.0,0.0,15,-11,-14,2.53,-1.25,-0.29,1.0,-0.011,0.022,-0.003,
1044,1,3598.277,-0.043,-0.021,0.977,0.0,0.0,0.0,14,-11,-14,2.53,-1.25,-0.29,1.0,-0.011,0.022,-0.003,
1045,1,3598.287,-0.04,-0.023,0.989,0.0,0.0,0.0,14,-11,-13,2.53,-1.25,-0.29,1.0,-0.011,0.022,-0.003,
1046,1,3598.297,-0.044,-0.021,0.99,0.0,0.0,0.0,14,-12,-14,2.53,-1.25,-0.29,1.0,-0.011,0.022,-0.003,
1047,1,3598.307,-0.041,-0.02,0.984,0.0,0.0,0.0,15,-11,-14,2.53,-1.25,-0.29,1.0,-0.011,0.022,-0.003,
1048,1,3598.317,-0.047,-0.024,0.987,0.0,0.0,0.0,15,-11,-14,2.53,-1.25,-0.29,1.0,-0.011,0.022,-0.003,
1049,1,3598.327,-0.038,-0.022,0.983,0.0,0.0,0.0,14,-11,-14,2.53,-1.25,-0.29,1.0,-0.011,0.022,-0.003,
1050,1,3598.337,-0.049,-0.025,0.986,0.0,0.0,0.0,14,-11,-14,2.53,-1.25,-0.29,1.0,-0.011,0.022,-0.003,
1051,1,3598.347,-0.047,-0.021,0.987,0.0,0.0,0.0,15,-11,-14,2.53,-1.25,-0.29,1.0,-0.011,0.022,-0.003,
1052,1,3598.357,-0.044,-0.022,0.989,0.0,0.0,0.0,14,-11,-14,2.53,-1.25,-0.29,1.0,-0.011,0.022,-0.003,
1053,1,3598.367,-0.043,-0.021,0.984,0.0,0.0,0.0,14,-11,-14,2.53,-1.25,-0.29,1.0,-0.011,0.022,-0.003,
1054,1,3598.377,-0.042,-0.021,0.988,0.0,0.0,0.0,15,-11,-14,2.53,-1.25,-0.29,1.0,-0.011,0.022,-0.003,
1055,1,3598.387,-0.044,-0.021,0.987,0.0,0.0,0.0,14,-12,-14,2.53,-1.25,-0.29,1.0,-0.011,0.022,-0.003,
1056,1,3598.397,-0.047,-0.025,0.99,0.0,0.0,0.0,14,-11,-14,2.53,-1.25,-0.29,1.0,-0.011,0.022,-0.003,
1057,1,3598.407,-0.042,-0.021,0.982,0.0,0.0,0.0,15,-11,-14,2.53,-1.25,-0.29,1.0,-0.011,0.022,-0.003,
1058,1,3598.417,-0.043,-0.018,0.988,0.0,0.0,0.0,14,-11,-13,2.53,-1.26,-0.29,1.0,-0.011,0.022,-0.003,
1059,1,3598.427,-0.042,-0.02,0.986,0.0,0.0,0.0,14,-11,-14,2.53,-1.25,-0.29,1.0,-0.011,0.022,-0.003,
1060,1,3598.437,-0.046,-0.024,0.99,0.0,0.0,0.0,14,-11,-14,2.53,-1.25,-0.29,1.0,-0.011,0.022,-0.003,
1061,1,3598.447,-0.045,-0.016,0.984,0.0,0.0,0.0,14,-11,-14,2.53,-1.26,-0.29,1.0,-0.011,0.022,-0.003,
1062,1,3598.457,-0.05,-0.024,0.991,0.0,0.0,0.0,14,-11,-14,2.53,-1.25,-0.29,1.0,-0.011,0.022,-0.003,
1063,1,3598.467,-0.047,-0.017,0.988,0.0,0.0,0.0,15,-12,-14,2.53,-1.26,-0.29,1.0,-0.011,0.022,-0.003,
1064,1,3598.477,-0.043,-0.021,0.985,0.0,0.0,0.0,15,-12,-14,2.53,-1.25,-0.29,1.0,-0.011,0.022,-0.003,
1065,1,3598.487,-0.04,-0.021,0.99,0.0,0.0,0.0,14,-11,-14,2.53,-1.25,-0.29,1.0,-0.011,0.022,-0.003,
1066,1,3598.497,-0.046,-0.021,0.986,0.0,0.0,0.0,14,-11,-14,2.53,-1.25,-0.29,1.0,-0.011,0.022,-0.003,
1067,1,3598.507,-0.041,-0.019,0.986,0.0,0.0,0.0,14,-11,-14,2.53,-1.25,-0.29,1.0,-0.011,0.022,-0.003,
1068,1,3598.517,-0.044,-0.022,0.983,0.0,0.0,0.0,15,-11,-14,2.53,-1.25,-0.29,1.0,-0.011,0.022,-0.003,
1069,1,3598.528,-0.043,-0.022,0.988,0.0,0.0,0.0,15,-11,-14,2.53,-1.25,-0.29,1.0,-0.011,0.022,-0.003,
1070,1,3598.537,-0.043,-0.023,0.988,0.0,0.0,0.0,14,-11,-14,2.53,-1.25,-0.29,1.0,-0.011,0.022,-0.003,
1071,1,3598.547,-0.044,-0.021,0.986,0.0,0.0,0.0,14,-11,-14,2.53,-1.25,-0.29,1.0,-0.011,0.022,-0.003,
1072,1,3598.557,-0.044,-0.024,0.983,0.0,0.0,0.0,14,-11,-14,2.53,-1.25,-0.29,1.0,-0.011,0.022,-0.003,
1073,1,3598.567,-0.047,-0.021,0.993,0.0,0.0,0.0,15,-11,-14,2.53,-1.25,-0.29,1.0,-0.011,0.022,-0.003,
1074,1,3598.577,-0.05,-0.021,0.988,0.0,0.0,0.0,15,-11,-14,2.53,-1.26,-0.29,1.0,-0.011,0.022,-0.003,
1075,1,3598.587,-0.044,-0.024,0.983,0.0,0.0,0.0,14,-11,-14,2.53,-1.25,-0.29,1.0,-0.011,0.022,-0.003,
1076,1,3598.597,-0.044,-0.025,0.981,0.0,0.0,0.0,15,-11,-13,2.53,-1.25,-0.29,1.0,-0.011,0.022,-0.003,
1077,1,3598.607,-0.046,-0.017,0.99,0.0,0.0,0.0,14,-12,-14,2.53,-1.26,-0.29,1.0,-0.011,0.022,-0.003,
1078,1,3598.617,-0.044,-0.021,0.988,0.0,0.0,0.0,14,-11,-14,2.53,-1.26,-0.29,1.0,-0.011,0.022,-0.003,
1079,1,3598.628,-0.044,-0.022,0.987,0.0,0.0,0.0,15,-11,-14,2.53,-1.26,-0.29,1.0,-0.011,0.022,-0.003,
1080,1,3598.638,-0.044,-0.021,0.984,0.0,0.0,0.0,14,-11,-14,2.53,-1.26,-0.29,1.0,-0.011,0.022,-0.003,
1081,1,3598.648,-0.043,-0.021,0.991,0.0,0.0,0.0,14,-12,-14,2.53,-1.26,-0.29,1.0,-0.011,0.022,-0.003,
1082,1,3598.658,-0.041,-0.021,0.987,0.0,0.0,0.0,15,-11,-14,2.53,-1.26,-0.29,1.0,-0.011,0.022,-0.003,
