Time,Speed,accX,accY,accZ,velocity_magnitude
0.071,1500,0.02125137,0.00675824,0.0011511,0
0.088,1500,0.02025137,0.00675824,0.0011511,0
0.098,1500,0.02225137,0.00575824,0.0001511,0
0.108,1500,0.02125137,0.00775824,0.0011511,0
0.119,1500,0.01825137,0.00875824,-0.0038489,0
0.128,1500,0.02525137,0.00775824,-0.0008489,0
0.138,1500,0.02325137,0.00375824,0.0011511,0
0.149,1500,0.02025137,0.00675824,-0.0018489,0
0.159,1500,0.02125137,0.00975824,0.0001511,0
0.169,1500,0.02125137,0.00375824,0.0001511,0
0.179,1500,0.02125137,0.00375824,0.0031511,0
0.189,1500,0.02025137,0.00675824,-0.0018489,0
0.198,1500,0.02125137,0.00875824,-0.0018489,0
0.208,1500,0.02325137,0.00275824,0.0001511,0
0.219,1500,0.02225137,0.00575824,-0.0008489,0
0.229,1500,0.02225137,0.00775824,-0.0018489,0
0.238,1500,0.02125137,0.00575824,-0.0008489,0
0.249,1500,0.02425137,0.00175824,0.0011511,0
0.258,1500,0.02225137,0.00675824,-0.0028489,0
0.269,1500,0.02225137,0.00875824,0.0001511,0
0.278,1500,0.02325137,0.00675824,-0.0038489,0
0.288,1500,0.02525137,0.00575824,0.0001511,0
0.298,1500,0.02525137,0.00475824,0.0001511,0
0.308,1500,0.02025137,0.00575824,0.0021511,0
0.319,1500,0.01925137,0.00675824,-0.0018489,0
0.329,1500,0.02125137,0.00575824,0.0001511,0
0.338,1500,0.02425137,0.00175824,0.0011511,0
0.348,1500,0.02125137,0.00975824,-0.0028489,0
0.359,1500,0.02325137,0.00575824,0.0011511,0
0.368,1500,0.02225137,0.00275824,-0.0008489,0
0.379,1500,0.02125137,0.00575824,-0.0018489,0
0.388,1500,0.02025137,0.00675824,-0.0048489,0
0.399,1500,0.02325137,0.00575824,0.0021511,0
0.409,1500,0.02225137,0.00175824,0.0031511,0
0.418,1500,0.02225137,0.00575824,-0.0018489,0
0.429,1500,0.02025137,0.01075824,-0.0038489,0
0.438,1500,0.02325137,0.00275824,-0.0028489,0
0.449,1500,0.02325137,0.00375824,0.0011511,0
0.458,1500,0.02225137,0.00775824,-0.0058489,0
0.469,1500,0.02225137,0.00775824,-0.0028489,0
0.479,1500,0.02225137,0.00375824,0.0031511,0
0.488,1500,0.02425137,0.00375824,-0.0018489,0
0.499,1500,0.02325137,0.00575824,-0.0058489,0
0.508,1500,0.02125137,0.00775824,-0.0028489,0
0.519,1500,0.02325137,0.00275824,0.0021511,0
0.528,1500,0.02425137,0.00575824,0.0021511,0
0.539,1500,0.02325137,0.00775824,-0.0048489,0
0.549,1500,0.01925137,0.00575824,-0.0048489,0
0.558,1500,0.02225137,0.00475824,0.0021511,0
0.569,1500,0.02425137,0.00375824,0.0021511,0
0.578,1500,0.01925137,0.00675824,-0.0008489,0
0.589,1500,0.02225137,0.00675824,-0.0028489,0
0.598,1500,0.02525137,0.00475824,-0.0008489,0
0.609,1500,0.02125137,0.00575824,0.0011511,0
0.618,1500,0.02125137,0.01075824,0.0001511,0
0.629,1500,0.02525137,0.00675824,-0.0008489,0
0.639,1500,0.02525137,0.00375824,0.0011511,0
0.648,1500,0.02125137,0.00475824,-0.0018489,0
0.659,1500,0.02225137,0.00975824,-0.0018489,0
0.668,1500,0.02325137,0.00675824,0.0031511,0
0.679,1500,0.02525137,0.00175824,-0.0018489,0
0.688,1500,0.02525137,0.00575824,-0.0028489,0
0.699,1500,0.02025137,0.00875824,-0.0018489,0
0.709,1500,0.02025137,0.00375824,0.0001511,0
0.718,1500,0.02325137,0.00275824,-0.0018489,0
0.729,1500,0.02525137,0.00375824,-0.0028489,0
0.738,1500,0.02225137,0.00675824,-0.0048489,0
0.749,1500,0.02125137,0.00575824,0.0011511,0
0.758,1500,0.02325137,0.00075824,0.0021511,0
0.769,1500,0.02325137,0.00375824,-0.0028489,0
0.778,1500,0.02025137,0.00875824,-0.0018489,0
0.789,1500,0.02125137,0.00075824,0.0031511,0
0.799,1500,0.02325137,0.00475824,0.0011511,0
0.809,1500,0.02225137,0.00775824,-0.0018489,0
0.819,1500,0.02025137,0.00575824,-0.0028489,0
0.828,1500,0.02225137,0.00475824,0.0011511,0
0.839,1500,0.02525137,0.00375824,0.0011511,0
0.848,1500,0.02225137,0.00575824,-0.0038489,0
0.859,1500,0.02325137,0.00375824,-0.0008489,0
0.869,1500,0.02325137,0.00475824,0.0041511,0
0.879,1500,0.02225137,0.00575824,-0.0028489,0
0.889,1500,0.01925137,0.00575824,0.0001511,0
0.898,1500,0.02325137,0.00775824,-0.0018489,0
0.909,1500,0.02525137,0.00475824,-0.0038489,0
0.918,1500,0.01925137,0.00375824,0.0001511,0
0.929,1500,0.02025137,0.00775824,-0.0028489,0
0.939,1500,0.02025137,0.00875824,0.0021511,0
0.949,1500,0.02525137,0.00175824,0.0031511,0
0.959,1500,0.02325137,0.00575824,-0.0038489,0
0.968,1500,0.02425137,0.00775824,-0.0028489,0
0.979,1500,0.02425137,0.00475824,-0.0008489,0
0.988,1500,0.02425137,0.00275824,0.0001511,0
0.999,1500,0.02425137,0.00475824,-0.0008489,0
1.009,1500,0.02525137,0.00575824,0.0001511,0
1.019,1500,0.02025137,0.00675824,0.0011511,0
1.029,1500,0.02325137,0.00575824,-0.0018489,0
1.038,1500,0.02425137,0.00775824,0.0001511,0
1.049,1500,0.02125137,0.00975824,-0.0008489,0
1.058,1500,0.01925137,0.00675824,0.0011511,0
1.069,1500,0.02325137,0.00675824,0.0001511,0
1.079,1500,0.02325137,0.00675824,0.0001511,0
1.089,1500,0.02225137,0.00675824,-0.0028489,0
1.099,1500,0.02225137,0.00575824,0.0001511,0
1.109,1500,0.02425137,0.00475824,0.0001511,0
1.119,1500,0.02125137,0.00575824,-0.0028489,0
1.129,1500,0.02325137,0.00375824,-0.0008489,0
1.139,1500,0.02325137,0.00775824,0.0021511,0
1.149,1500,0.02225137,0.00375824,0.0011511,0
1.158,1500,0.02325137,0.00575824,-0.0008489,0
1.169,1500,0.02125137,0.00575824,0.0001511,0
1.178,1500,0.02225137,0.00575824,-0.0008489,0
1.189,1500,0.02225137,0.00275824,0.0011511,0
1.199,1500,0.02125137,0.00775824,-0.0018489,0
1.209,1500,0.02125137,0.00775824,-0.0048489,0
1.219,1500,0.01825137,0.00675824,-0.0018489,0
1.228,1500,0.02025137,0.00375824,-0.0008489,0
1.239,1500,0.02425137,0.00575824,0.0001511,0
1.248,1500,0.02325137,0.00375824,0.0021511,0
1.259,1500,0.02125137,0.00575824,0.0001511,0
1.269,1500,0.02225137,0.00675824,-0.0018489,0
1.279,1500,0.02325137,0.00475824,-0.0008489,0
1.289,1500,0.02325137,0.00475824,0.0011511,0
1.299,1500,0.02125137,0.00775824,-0.0038489,0
1.309,1500,0.02125137,0.00575824,-0.0008489,0
1.319,1500,0.02125137,0.00375824,-0.0008489,0
1.329,1500,0.02425137,0.00575824,-0.0008489,0
1.338,1500,0.02425137,0.00875824,0.0001511,0
1.349,1500,0.02125137,0.00775824,0.0031511,0
1.359,1500,0.02225137,0.00575824,-0.0018489,0
1.369,1500,0.02425137,0.00575824,-0.0018489,0
1.379,1500,0.02125137,0.00475824,-0.0028489,0
1.389,1500,0.02025137,0.00175824,0.0021511,0
1.399,1500,0.02325137,0.00675824,-0.0018489,0
1.409,1500,0.02325137,0.00575824,-0.0018489,0
1.418,1500,0.02125137,0.00375824,-0.0058489,0
1.429,1500,0.02325137,0.00775824,-0.0048489,0
1.439,1500,0.02225137,0.00575824,-0.0008489,0
1.449,1500,0.02025137,0.00375824,0.0001511,0
1.459,1500,0.02025137,0.00475824,-0.0028489,0
1.469,1500,0.02025137,0.00575824,0.0021511,0
1.479,1500,0.02225137,0.00475824,-0.0008489,0
1.489,1500,0.02125137,0.00275824,-0.0028489,0
1.5,1500,0.02125137,0.00775824,-0.0038489,0
1.509,1500,0.02525137,0.00475824,-0.0018489,0
1.519,1500,0.02525137,0.00275824,0.0021511,0
1.529,1500,0.02125137,0.00575824,-0.0028489,0
1.539,1500,0.02225137,0.00675824,-0.0008489,0
1.549,1500,0.02025137,0.00475824,0.0001511,0
1.559,1500,0.02125137,0.00475824,0.0011511,0
1.569,1500,0.02325137,0.00575824,-0.0038489,0
1.579,1500,0.02325137,0.00575824,-0.0008489,0
1.589,1500,0.02325137,0.00275824,-0.0008489,0
1.599,1500,0.02125137,0.00775824,-0.0018489,0
1.609,1500,0.02125137,0.00475824,0.0021511,0
1.619,1500,0.02225137,0.00375824,0.0031511,0
1.629,1500,0.02325137,0.00475824,-0.0018489,0
1.639,1500,0.02425137,0.00675824,-0.0008489,0
1.649,1500,0.02025137,0.00675824,-0.0008489,0
1.659,1500,0.01825137,0.00475824,0.0021511,0
1.669,1500,0.02525137,0.00475824,0.0011511,0
1.679,1500,0.02225137,0.00275824,-0.0008489,0
1.69,1500,0.02225137,0.00675824,0.0001511,0
1.7,1500,0.02025137,0.00875824,-0.0008489,0
1.71,1500,0.02325137,0.00675824,0.0011511,0
1.72,1500,0.02025137,0.00675824,-0.0018489,0
1.73,1500,0.02125137,0.00675824,-0.0028489,0
1.74,1500,0.02425137,0.00675824,-0.0018489,0
1.75,1500,0.02325137,0.00175824,0.0021511,0
1.76,1500,0.02225137,0.00475824,-0.0008489,0
1.769,1500,0.02325137,0.00875824,-0.0038489,0
1.779,1500,0.02225137,0.00275824,0.0021511,0
1.789,1500,0.02025137,0.00375824,0.0021511,0
1.799,1500,0.02125137,0.00975824,-0.0038489,0
1.809,1500,0.02125137,0.00675824,-0.0008489,0
1.819,1500,0.02425137,0.00475824,0.0021511,0
1.829,1500,0.02325137,0.00675824,0.0001511,0
1.839,1500,0.02125137,0.00775824,-0.0028489,0
1.849,1500,0.02225137,0.00575824,0.0011511,0
1.859,1500,0.02525137,0.00375824,0.0021511,0
1.87,1500,0.02425137,0.00475824,0.0001511,0
1.88,1500,0.02225137,0.00675824,-0.0028489,0
1.89,1500,0.02225137,0.00875824,-0.0018489,0
1.9,1500,0.02525137,0.00475824,0.0021511,0
1.91,1500,0.02325137,0.00375824,-0.0008489,0
1.92,1500,0.01925137,0.00475824,0.0001511,0
1.93,1500,0.02125137,0.00575824,-0.0008489,0
1.939,1500,0.02425137,0.00375824,0.0031511,0
1.949,1500,0.02625137,0.00275824,0.0021511,0
1.96,1500,0.01925137,0.00775824,-0.0028489,0
1.969,1500,0.01825137,0.00975824,-0.0008489,0
1.979,1500,0.02525137,0.00575824,-0.0008489,0
1.989,1500,0.01925137,0.00375824,0.0001511,0
2,1500,0.02125137,0.00875824,-0.0078489,0
2.009,1500,0.02225137,0.00675824,0.0011511,0
2.019,1500,0.02225137,0.00275824,0.0011511,0
2.03,1500,0.02125137,0.00575824,-0.0018489,0
2.039,1500,0.02125137,0.00875824,0.0001511,0
2.049,1500,0.02125137,0.00475824,0.0031511,0
2.059,1500,0.02125137,0.00375824,0.0001511,0
2.069,1500,0.02225137,0.00575824,0.0001511,0
2.08,1500,0.02325137,0.00475824,-0.0038489,0
2.089,1500,0.02025137,0.00675824,0.0011511,0
2.099,1500,0.02325137,0.00375824,-0.0038489,0
2.11,1500,0.02125137,0.00775824,-0.0008489,0
2.119,1500,0.02125137,0.00575824,-0.0038489,0
2.129,1500,0.02325137,0.00375824,0.0001511,0
2.14,1500,0.02225137,0.00375824,0.0001511,0
2.149,1500,0.02125137,0.00675824,-0.0018489,0
2.159,1500,0.02225137,0.00475824,-0.0008489,0
2.17,1500,0.02325137,0.00375824,0.0021511,0
2.179,1500,0.01925137,0.00375824,0.0001511,0
2.189,1500,0.02025137,0.00675824,-0.0018489,0
2.2,1500,0.02225137,0.00775824,-0.0028489,0
2.209,1500,0.02325137,0.00175824,0.0021511,0
2.219,1500,0.02225137,0.00575824,0.0011511,0
2.229,1500,0.02225137,0.00775824,-0.0058489,0
2.24,1500,0.02125137,0.00575824,-0.0018489,0
2.249,1500,0.02525137,0.00375824,-0.0008489,0
2.259,1500,0.02125137,0.00475824,0.0011511,0
2.27,1500,0.02225137,0.00675824,-0.0038489,0
2.279,1500,0.02325137,0.00575824,0.0001511,0
2.29,1500,0.02325137,0.00275824,0.0021511,0
2.299,1500,0.02225137,0.00675824,-0.0008489,0
2.309,1500,0.02125137,0.01075824,-0.0018489,0
2.32,1500,0.02125137,0.00475824,0.0001511,0
2.329,1500,0.02525137,0.00575824,-0.0008489,0
2.339,1500,0.02425137,0.00475824,-0.0018489,0
2.35,1500,0.02025137,0.00575824,-0.0018489,0
2.359,1500,0.01925137,0.00375824,0.0021511,0
2.369,1500,0.02125137,0.00375824,0.0011511,0
2.38,1500,0.02325137,0.00575824,-0.0038489,0
2.389,1500,0.02025137,0.00375824,-0.0038489,0
2.4,1500,0.02325137,0.00575824,0.0011511,0
2.41,1500,0.02325137,0.00175824,0.0011511,0
2.419,1500,0.02525137,0.00575824,-0.0038489,0
2.43,1500,0.02125137,0.00575824,-0.0048489,0
2.439,1500,0.02225137,0.00575824,-0.0008489,0
2.449,1500,0.02325137,0.00775824,0.0031511,0
2.46,1500,0.02025137,0.00675824,-0.0028489,0
2.469,1500,0.02625137,0.00575824,-0.0028489,0
2.479,1500,0.02125137,0.00275824,-0.0018489,0
2.49,1500,0.02025137,0.00475824,0.0011511,0
2.499,1500,0.02125137,0.00675824,-0.0008489,0
2.51,1500,0.02325137,0.00475824,-0.0028489,0
2.52,1500,0.02525137,0.00275824,-0.0018489,0
2.529,1500,0.02225137,0.00575824,0.0011511,0
2.54,1500,0.02325137,0.00675824,-0.0008489,0
2.549,1500,0.02125137,0.00775824,-0.0018489,0
2.559,1500,0.02125137,0.00375824,-0.0008489,0
2.57,1500,0.02325137,0.00675824,-0.0008489,0
2.58,1500,0.02325137,0.00775824,-0.0018489,0
2.59,1500,0.02225137,0.00275824,0.0011511,0
2.599,1500,0.02425137,0.00575824,-0.0018489,0
2.609,1500,0.02225137,0.00775824,-0.0038489,0
2.62,1500,0.02325137,0.00675824,-0.0008489,0
2.629,1500,0.02125137,0.00675824,0.0021511,0
2.639,1500,0.02525137,0.00475824,-0.0018489,0
2.65,1500,0.02225137,0.00375824,-0.0008489,0
2.659,1500,0.02425137,0.00575824,0.0021511,0
2.669,1500,0.02325137,0.00375824,-0.0008489,0
2.68,1500,0.02125137,0.00275824,0.0011511,0
2.689,1500,0.02225137,0.00575824,0.0021511,0
2.7,1500,0.02125137,0.00275824,0.0031511,0
2.71,1500,0.02225137,0.00775824,0.0011511,0
2.719,1500,0.02325137,0.00575824,-0.0018489,0
2.73,1500,0.02325137,0.00475824,0.0011511,0
2.74,1500,0.02025137,0.00675824,-0.0038489,0
2.749,1500,0.02325137,0.00575824,-0.0018489,0
2.759,1500,0.02225137,0.00475824,0.0021511,0
2.769,1500,0.02025137,0.00675824,-0.0008489,0
2.78,1500,0.02425137,0.00775824,-0.0028489,0
2.79,1500,0.02325137,0.00375824,-0.0008489,0
2.799,1500,0.02025137,0.00375824,0.0021511,0
2.81,1500,0.02125137,0.00775824,-0.0018489,0
2.82,1500,0.02225137,0.00475824,0.0011511,0
2.829,1500,0.02025137,0.00575824,0.0001511,0
2.84,1500,0.02225137,0.00875824,-0.0028489,0
2.85,1500,0.02225137,0.00575824,-0.0028489,0
2.859,1500,0.02225137,0.00475824,-0.0018489,0
2.87,1500,0.02125137,0.00775824,-0.0008489,0
2.879,1500,0.02425137,0.00875824,0.0001511,0
2.889,1500,0.02225137,0.00575824,-0.0018489,0
2.9,1500,0.02325137,0.00275824,0.0041511,0
2.909,1500,0.02325137,0.00775824,-0.0028489,0
2.92,1500,0.02325137,0.00375824,0.0021511,0
2.93,1500,0.02125137,0.00475824,0.0011511,0
2.939,1500,0.02525137,0.00575824,-0.0008489,0
2.949,1500,0.02125137,0.00775824,0.0001511,0
2.96,1500,0.01825137,0.00575824,0.0011511,0
2.969,1500,0.02225137,0.00575824,0.0001511,0
2.98,1500,0.02325137,0.00675824,-0.0008489,0
2.99,1500,0.02325137,0.00575824,-0.0008489,0
2.999,1500,0.02225137,0.00375824,0.0011511,0
3.01,1500,0.02225137,0.00675824,0.0021511,0
3.02,1500,0.02325137,0.00475824,-0.0028489,0
3.029,1500,0.02225137,0.00475824,-0.0018489,0
3.04,1500,0.02225137,0.00675824,-0.0018489,0
3.05,1500,0.02325137,0.00575824,0.0011511,0
3.059,1500,0.02325137,0.00475824,-0.0018489,0
3.069,1500,0.02125137,0.00575824,-0.0068489,0
3.08,1500,0.02525137,0.00875824,-0.0008489,0
3.089,1500,0.02225137,0.00275824,0.0031511,0
3.1,1500,0.02425137,0.00575824,-0.0008489,0
3.11,1500,0.02025137,0.00775824,-0.0038489,0
3.119,1500,0.02425137,0.00475824,-0.0018489,0
3.13,1500,0.02125137,0.00175824,0.0001511,0
3.14,1500,0.02125137,0.00775824,-0.0008489,0
3.149,1500,0.02125137,0.00875824,0.0001511,0
3.16,1500,0.02125137,0.00275824,-0.0008489,0
3.17,1500,0.02425137,0.00575824,-0.0018489,0
3.179,1500,0.01925137,0.00575824,-0.0018489,0
3.19,1500,0.02225137,0.00575824,0.0001511,0
3.2,1500,0.01925137,0.00775824,0.0001511,0
3.209,1500,0.02425137,0.00675824,-0.0008489,0
3.22,1500,0.02325137,0.00675824,0.0001511,0
3.23,1500,0.02025137,0.00475824,-0.0018489,0
3.239,1500,0.02525137,0.00475824,-0.0028489,0
3.25,1500,0.02425137,0.00775824,-0.0018489,0
3.26,1500,0.02225137,0.00575824,-0.0008489,0
3.27,1500,0.01925137,0.00675824,0.0011511,0
3.28,1500,0.02425137,0.00475824,-0.0028489,0
3.29,1500,0.02325137,0.00375824,-0.0008489,0
3.3,1500,0.01925137,0.00775824,-0.0008489,0
3.31,1500,0.02125137,0.00675824,0.0011511,0
3.319,1500,0.02225137,0.00575824,0.0001511,0
3.33,1500,0.02325137,0.00475824,-0.0008489,0
3.34,1500,0.02425137,0.00875824,-0.0028489,0
3.349,1500,0.02225137,0.00775824,0.0011511,0
3.36,1500,0.02125137,0.00175824,0.0041511,0
3.37,1500,0.02025137,0.00475824,-0.0028489,0
3.379,1500,0.02225137,0.00875824,-0.0068489,0
3.39,1500,0.02425137,0.00575824,0.0001511,0
3.4,1500,0.02325137,-0.00024176,0.0041511,0
3.409,1500,0.02325137,0.00575824,-0.0008489,0
3.42,1500,0.02425137,0.00575824,-0.0028489,0
3.43,1500,0.02225137,0.00475824,0.0021511,0
3.439,1500,0.02425137,0.00575824,0.0001511,0
3.45,1500,0.02325137,0.00775824,-0.0008489,0
3.46,1500,0.01925137,0.00475824,-0.0018489,0
3.47,1500,0.02525137,0.00575824,-0.0018489,0
3.48,1500,0.02525137,0.00375824,0.0011511,0
3.489,1500,0.02025137,0.00575824,-0.0008489,0
3.5,1500,0.02025137,0.00775824,0.0001511,0
3.509,1500,0.02525137,0.00775824,-0.0008489,0
3.52,1500,0.02425137,0.00175824,0.0021511,0
3.53,1500,0.02125137,0.00675824,0.0011511,0
3.54,1500,0.02325137,0.01075824,-0.0018489,0
3.55,1500,0.02325137,0.00475824,0.0011511,0
3.56,1500,0.02225137,0.00175824,-0.0008489,0
3.57,1500,0.02025137,0.00975824,-0.0028489,0
3.58,1500,0.02025137,0.00875824,-0.0008489,0
3.59,1500,0.02225137,0.00275824,0.0041511,0
3.6,1500,0.02325137,0.00475824,0.0001511,0
3.61,1500,0.02025137,0.01075824,-0.0038489,0
3.62,1500,0.02125137,0.00775824,0.0001511,0
3.63,1500,0.02225137,0.00375824,-0.0008489,0
3.64,1500,0.02225137,0.00575824,-0.0018489,0
3.65,1500,0.02325137,0.00775824,0.0001511,0
3.66,1500,0.02325137,0.00475824,0.0011511,0
3.67,1500,0.02425137,0.00475824,0.0001511,0
3.68,1500,0.02325137,0.00475824,0.0001511,0
3.69,1500,0.02025137,0.00575824,-0.0008489,0
3.7,1500,0.02025137,0.00475824,-0.0058489,0
3.71,1500,0.02125137,0.00375824,0.0021511,0
3.72,1500,0.02225137,0.00675824,-0.0028489,0
3.73,1500,0.02025137,0.00675824,-0.0018489,0
3.74,1500,0.01925137,0.00175824,0.0021511,0
3.75,1500,0.02425137,0.00475824,-0.0018489,0
3.76,1500,0.02225137,0.00675824,-0.0018489,0
3.77,1500,0.02125137,0.00775824,-0.0048489,0
3.78,1500,0.02425137,0.00575824,-0.0008489,0
3.79,1500,0.02425137,0.00575824,0.0011511,0
3.8,1500,0.02025137,0.00575824,0.0001511,0
3.81,1500,0.02525137,0.00575824,-0.0018489,0
3.82,1500,0.02325137,0.00475824,-0.0008489,0
3.831,1500,0.02325137,0.00575824,0.0001511,0
3.841,1500,0.02125137,0.00875824,-0.0008489,0
3.85,1500,0.02225137,0.00675824,-0.0028489,0
3.86,1500,0.02025137,0.00275824,-0.0028489,0
3.87,1500,0.02025137,0.00475824,-0.0028489,0
3.88,1500,0.02325137,0.00675824,-0.0008489,0
3.89,1500,0.02325137,0.00675824,0.0001511,0
3.9,1500,0.02225137,0.00475824,0.0031511,0
3.91,1500,0.02225137,0.00275824,0.0011511,0
3.92,1500,0.02325137,0.00575824,-0.0018489,0
3.93,1500,0.02325137,0.00575824,-0.0008489,0
3.941,1500,0.02125137,0.00275824,0.0021511,0
3.95,1500,0.02225137,0.00375824,-0.0008489,0
3.96,1500,0.02325137,0.00875824,-0.0018489,0
3.97,1500,0.02025137,0.00575824,0.0001511,0
3.98,1500,0.02425137,0.00275824,0.0001511,0
3.99,1500,0.02525137,0.00675824,-0.0028489,0
4,1500,0.01825137,0.00975824,0.0001511,0
4.01,1500,0.02325137,0.00375824,0.0001511,0
4.021,1500,0.02125137,0.00575824,0.0021511,0
4.03,1500,0.02425137,0.00275824,-0.0028489,0
4.04,1500,0.01925137,0.00675824,-0.0008489,0
4.05,1500,0.02225137,0.00775824,0.0001511,0
4.06,1500,0.02525137,0.00275824,0.0001511,0
4.071,1500,0.01925137,0.00675824,-0.0008489,0
4.08,1500,0.02125137,0.00875824,-0.0048489,0
4.09,1500,0.02425137,0.00775824,0.0011511,0
4.1,1500,0.02025137,0.00775824,0.0001511,0
4.11,1500,0.02125137,0.00675824,-0.0018489,0
4.12,1500,0.02425137,0.00775824,-0.0038489,0
4.13,1500,0.02125137,0.00475824,-0.0028489,0
4.14,1500,0.02025137,0.00575824,0.0001511,0
4.15,1500,0.02325137,0.00675824,-0.0018489,0
4.16,1500,0.02225137,0.00775824,-0.0018489,0
4.17,1500,0.02125137,0.00575824,0.0011511,0
4.18,1500,0.02225137,0.00475824,0.0001511,0
4.19,1500,0.02025137,0.00675824,-0.0008489,0
4.2,1500,0.02525137,0.00475824,-0.0018489,0
4.211,1500,0.02325137,0.00375824,-0.0008489,0
4.221,1500,0.02425137,0.00575824,-0.0008489,0
4.23,1500,0.02125137,0.00575824,-0.0028489,0
4.24,1500,0.02225137,0.00575824,-0.0028489,0
4.25,1500,0.02425137,0.00575824,-0.0008489,0
4.26,1500,0.02225137,0.00775824,-0.0048489,0
4.271,1500,0.02025137,0.00375824,0.0021511,0
4.281,1500,0.02425137,0.00675824,0.0021511,0
4.291,1500,0.02425137,0.00375824,-0.0028489,0
4.301,1500,0.02525137,0.00375824,-0.0008489,0
4.311,1500,0.02425137,0.00575824,-0.0008489,0
4.321,1500,0.02325137,0.00875824,0.0021511,0
4.331,1500,0.02325137,0.00575824,-0.0038489,0
4.341,1500,0.02225137,0.00275824,-0.0008489,0
4.35,1500,0.02325137,0.00675824,-0.0028489,0
4.361,1500,0.02125137,0.00475824,0.0001511,0
4.371,1500,0.02125137,0.00675824,0.0001511,0
4.381,1500,0.02025137,0.00675824,-0.0018489,0
4.391,1500,0.02325137,0.00675824,0.0011511,0
4.401,1500,0.02525137,0.00475824,-0.0028489,0
4.411,1500,0.01825137,0.00475824,-0.0018489,0
4.421,1500,0.02325137,0.00675824,-0.0008489,0
4.431,1500,0.02425137,0.00275824,0.0011511,0
4.441,1500,0.02225137,0.00775824,0.0011511,0
4.451,1500,0.02225137,0.00675824,-0.0018489,0
4.461,1500,0.02425137,0.00275824,-0.0008489,0
4.47,1500,0.02225137,0.00475824,-0.0008489,0
4.48,1500,0.02325137,0.00575824,-0.0018489,0
4.49,1500,0.02225137,0.00875824,-0.0008489,0
4.5,1500,0.02325137,0.00475824,0.0001511,0
4.511,1500,0.02225137,0.00575824,0.0011511,0
4.52,1500,0.02325137,0.00475824,-0.0018489,0
4.53,1500,0.02125137,0.00475824,0.0001511,0
4.541,1500,0.01925137,0.00675824,-0.0018489,0
4.551,1500,0.02325137,0.00675824,0.0021511,0
4.561,1500,0.02325137,0.00675824,0.0001511,0
4.57,1500,0.02125137,0.00275824,-0.0018489,0
4.58,1500,0.02025137,0.00675824,-0.0018489,0
4.59,1500,0.02525137,0.00475824,0.0011511,0
4.601,1500,0.02225137,0.00675824,-0.0018489,0
4.611,1500,0.02225137,0.00775824,-0.0008489,0
4.621,1500,0.02325137,0.00475824,0.0031511,0
4.631,1500,0.02325137,0.00475824,0.0001511,0
4.641,1500,0.02325137,0.00875824,-0.0048489,0
4.651,1500,0.02025137,0.00775824,0.0001511,0
4.661,1500,0.02125137,0.00375824,0.0001511,0
4.67,1500,0.02025137,0.00275824,0.0001511,0
4.681,1500,0.02325137,0.00875824,-0.0038489,0
4.69,1500,0.02525137,0.00875824,-0.0018489,0
4.7,1500,0.02425137,0.00175824,0.0021511,0
4.711,1500,0.02025137,0.00475824,0.0011511,0
4.72,1500,0.02125137,0.00675824,-0.0048489,0
4.73,1500,0.02225137,0.00375824,-0.0028489,0
4.741,1500,0.02325137,0.00275824,0.0011511,0
4.75,1500,0.02225137,0.00475824,-0.0018489,0
4.761,1500,0.02325137,0.00875824,-0.0048489,0
4.771,1500,0.02425137,0.00375824,0.0011511,0
4.78,1500,0.01925137,0.00475824,0.0011511,0
4.791,1500,0.02325137,0.00675824,0.0021511,0
4.8,1500,0.02125137,0.00875824,0.0011511,0
4.81,1500,0.02425137,0.00575824,0.0001511,0
4.821,1500,0.02525137,0.00575824,0.0011511,0
4.83,1500,0.02225137,0.00775824,0.0001511,0
4.84,1500,0.01925137,0.00675824,0.0001511,0
4.851,1500,0.02125137,0.00575824,0.0021511,0
4.86,1500,0.02325137,0.00775824,-0.0008489,0
4.87,1500,0.02325137,0.00375824,-0.0018489,0
4.881,1500,0.02225137,0.00675824,-0.0008489,0
4.89,1500,0.02325137,0.00775824,0.0001511,0
4.901,1500,0.02525137,0.00275824,0.0001511,0
4.911,1500,0.01925137,0.00575824,-0.0028489,0
4.92,1500,0.02025137,0.00875824,-0.0018489,0
4.931,1500,0.02525137,0.00675824,0.0041511,0
4.941,1500,0.02125137,0.00275824,0.0021511,0
4.95,1500,0.02225137,0.00675824,-0.0038489,0
4.961,1500,0.02325137,0.00775824,-0.0028489,0
4.97,1500,0.02225137,0.00375824,-0.0028489,0
4.98,1500,0.02025137,0.00375824,0.0011511,0
4.991,1500,0.02125137,0.00875824,-0.0018489,0
5.001,1500,0.02125137,0.00675824,-0.0008489,0
5.01,1500,0.01925137,0.00075824,0.0021511,0
5.022,1500,0.02425137,0.00475824,0.0001511,0
5.031,1500,0.02125137,0.00675824,-0.0038489,0
5.04,1500,0.02325137,0.00475824,-0.0018489,0
5.05,1500,0.02225137,0.00375824,0.0001511,0
5.061,1500,0.02225137,0.00775824,0.0001511,0
5.07,1500,0.02325137,0.00775824,-0.0048489,0
5.081,1500,0.02025137,0.00675824,-0.0018489,0
5.09,1500,0.02325137,0.00475824,-0.0018489,0
5.101,1500,0.02425137,0.00275824,-0.0008489,0
5.111,1500,0.01925137,0.00775824,0.0001511,0
5.121,1500,0.02425137,0.00475824,-0.0028489,0
5.131,1500,0.02425137,0.00075824,-0.0028489,0
5.14,1500,0.01925137,0.00575824,-0.0018489,0
5.15,1500,0.02225137,0.01075824,0.0001511,0
5.16,1500,0.02225137,0.00575824,0.0011511,0
5.17,1500,0.02325137,0.00475824,0.0021511,0
5.18,1500,0.01925137,0.00575824,-0.0038489,0
5.191,1500,0.02325137,0.00875824,-0.0038489,0
5.201,1500,0.02325137,0.00475824,0.0001511,0
5.211,1500,0.02225137,0.00475824,0.0031511,0
5.221,1500,0.02125137,0.00675824,-0.0028489,0
5.231,1500,0.02325137,0.00375824,0.0011511,0
5.241,1500,0.02325137,0.00375824,0.0011511,0
5.25,1500,0.02325137,0.00275824,0.0021511,0
5.261,1500,0.02325137,0.00775824,-0.0008489,0
5.27,1500,0.02225137,0.00775824,-0.0008489,0
5.28,1500,0.02225137,0.00375824,0.0001511,0
5.291,1500,0.02425137,0.00675824,-0.0008489,0
5.301,1500,0.02325137,0.00575824,-0.0008489,0
5.311,1500,0.02025137,0.00475824,-0.0008489,0
5.321,1500,0.02125137,0.00475824,0.0001511,0
5.331,1500,0.02325137,0.00075824,0.0031511,0
5.341,1500,0.02025137,0.00475824,-0.0028489,0
5.351,1500,0.02025137,0.01175824,-0.0048489,0
5.361,1500,0.02225137,0.00475824,-0.0028489,0
5.371,1500,0.02225137,0.00275824,0.0001511,0
5.381,1500,0.02225137,0.00875824,-0.0018489,0
5.391,1500,0.02425137,0.00875824,-0.0008489,0
5.401,1500,0.02325137,0.00175824,0.0021511,0
5.41,1500,0.01825137,0.00475824,-0.0028489,0
5.42,1500,0.02125137,0.00975824,-0.0048489,0
5.431,1500,0.02125137,0.00275824,-0.0018489,0
5.441,1500,0.02125137,0.00475824,0.0021511,0
5.451,1500,0.02225137,0.00675824,0.0001511,0
5.461,1500,0.01925137,0.00475824,-0.0028489,0
5.47,1500,0.02125137,0.00475824,-0.0008489,0
5.481,1500,0.02325137,0.00475824,0.0031511,0
5.491,1500,0.02225137,0.00775824,0.0001511,0
5.5,1500,0.02525137,0.00575824,-0.0018489,0
5.511,1500,0.02025137,0.00575824,-0.0018489,0
5.52,1500,0.02425137,0.00575824,-0.0018489,0
5.531,1500,0.02525137,0.00475824,-0.0038489,0
5.541,1500,0.02225137,0.00575824,-0.0018489,0
5.55,1500,0.02325137,0.00575824,0.0011511,0
5.561,1500,0.02325137,0.00375824,0.0001511,0
5.57,1500,0.02325137,0.00275824,0.0001511,0
5.581,1500,0.02125137,0.00775824,-0.0028489,0
5.59,1500,0.02425137,0.00375824,-0.0048489,0
5.601,1500,0.02325137,0.00075824,0.0001511,0
5.611,1500,0.02025137,0.00475824,0.0031511,0
5.621,1500,0.02025137,0.00675824,0.0011511,0
5.631,1500,0.02425137,0.00175824,0.0011511,0
5.641,1500,0.02225137,0.00575824,0.0011511,0
5.651,1500,0.02125137,0.00675824,-0.0058489,0
5.661,1500,0.02325137,0.00575824,0.0001511,0
5.671,1500,0.02025137,0.00775824,0.0001511,0
5.681,1500,0.02425137,0.00675824,-0.0028489,0
5.691,1500,0.02325137,0.00575824,-0.0028489,0
5.701,1500,0.02125137,0.00875824,-0.0028489,0
5.71,1500,0.02025137,0.00575824,0.0011511,0
5.721,1500,0.02125137,0.00775824,-0.0018489,0
5.731,1500,0.02425137,0.00575824,0.0021511,0
5.741,1500,0.02025137,0.00375824,0.0001511,0
5.751,1500,0.02425137,0.00675824,0.0001511,0
5.76,1500,0.02425137,0.00575824,-0.0008489,0
5.771,1500,0.02025137,0.00375824,0.0021511,0
5.781,1500,0.02225137,0.00275824,-0.0028489,0
5.791,1500,0.02325137,0.00475824,-0.0028489,0
5.801,1500,0.02125137,0.00975824,-0.0038489,0
5.811,1500,0.02625137,0.00475824,-0.0018489,0
5.821,1500,0.02025137,0.00675824,0.0001511,0
5.831,1500,0.02425137,0.00675824,-0.0018489,0
5.841,1500,0.02425137,0.00475824,-0.0018489,0
5.851,1500,0.02225137,0.00475824,0.0001511,0
5.861,1500,0.02025137,0.00875824,0.0011511,0
5.871,1500,0.02025137,0.00475824,-0.0028489,0
5.881,1500,0.02025137,0.00375824,-0.0008489,0
5.891,1500,0.02225137,0.00875824,-0.0018489,0
5.901,1500,0.02525137,0.00675824,-0.0038489,0
5.911,1500,0.02125137,0.00375824,-0.0038489,0
5.921,1500,0.02325137,0.00275824,0.0041511,0
5.932,1500,0.02325137,0.00675824,-0.0008489,0
5.942,1500,0.02325137,0.00575824,0.0001511,0
5.952,1500,0.02225137,0.00275824,0.0011511,0
5.961,1500,0.02425137,0.00375824,0.0021511,0
5.971,1500,0.02225137,0.00575824,0.0011511,0
5.981,1500,0.02125137,0.00475824,0.0011511,0
5.991,1500,0.02325137,0.00675824,-0.0028489,0
6.001,1500,0.02025137,0.00675824,0.0001511,0
6.012,1500,0.02225137,0.00375824,0.0041511,0
6.022,1500,0.02225137,0.00475824,0.0001511,0
6.032,1500,0.02225137,0.01075824,-0.0048489,0
6.042,1500,0.02125137,0.00575824,0.0001511,0
6.051,1500,0.02225137,0.00675824,0.0021511,0
6.061,1500,0.02425137,0.00875824,-0.0058489,0
6.072,1500,0.02325137,0.00475824,-0.0028489,0
6.081,1500,0.02125137,0.00175824,0.0001511,0
6.091,1500,0.02325137,0.00775824,-0.0008489,0
6.101,1500,0.02225137,0.00675824,-0.0018489,0
6.111,1500,0.02125137,0.00375824,0.0031511,0
6.121,1500,0.02625137,0.00175824,-0.0018489,0
6.131,1500,0.02325137,0.00475824,-0.0008489,0
6.141,1500,0.02025137,0.00775824,-0.0008489,0
6.151,1500,0.02525137,0.00775824,0.0001511,0
6.161,1500,0.02725137,0.00575824,0.0001511,0
6.17,1500,0.02125137,0.00475824,-0.0008489,0
6.181,1500,0.02025137,0.00675824,-0.0018489,0
6.191,1500,0.02225137,0.00575824,0.0001511,0
6.201,1500,0.02325137,0.00475824,0.0011511,0
6.211,1500,0.02425137,0.00175824,0.0031511,0
6.221,1500,0.02125137,0.00875824,-0.0038489,0
6.231,1500,0.02125137,0.00475824,0.0001511,0
6.241,1500,0.02325137,0.00075824,0.0021511,0
6.251,1500,0.02225137,0.00375824,-0.0028489,0
6.261,1500,0.01925137,0.00875824,-0.0028489,0
6.272,1500,0.02225137,0.00475824,-0.0008489,0
6.281,1500,0.02525137,0.00175824,-0.0028489,0
6.291,1500,0.02225137,0.00775824,-0.0008489,0
6.302,1500,0.02025137,0.00875824,-0.0038489,0
6.312,1500,0.02125137,0.00475824,-0.0018489,0
6.322,1500,0.02125137,0.00375824,0.0031511,0
6.331,1500,0.02225137,0.00775824,-0.0018489,0
6.341,1500,0.02125137,0.00475824,-0.0038489,0
6.351,1500,0.02225137,0.00175824,0.0051511,0
6.361,1500,0.02325137,0.00475824,0.0011511,0
6.371,1500,0.02425137,0.00675824,0.0011511,0
6.381,1500,0.01425137,0.00875824,0.0141511,0
6.391,1500,0.00825137,0.01575824,0.0131511,0
6.402,1500,0.01525137,0.01175824,-0.0078489,0
6.411,1500,0.06925137,0.05275824,-0.0598489,0
6.421,1500,0.00025137,0.02675824,0.0091511,0
6.431,1500,0.03925137,-0.02424176,0.0791511,0
6.441,1500,0.03825137,-0.02224176,0.0751511,0
6.451,1500,0.01225137,0.06275824,-0.0368489,0
6.461,1500,-0.00074863,0.04275824,-0.0558489,0
6.471,1500,0.02225137,-0.03224176,0.0041511,0
6.481,1500,0.02325137,-0.03524176,0.0341511,0
6.491,1500,0.02225137,0.01375824,0.0031511,0
6.502,1500,0.04725137,0.04075824,-0.0228489,0
6.512,1500,0.02825137,0.01275824,-0.0108489,0
6.522,1500,-0.00674863,-0.00424176,0.0081511,0
6.532,1500,0.01725137,-0.01424176,0.0121511,0
6.542,1500,0.01725137,-0.00824176,-0.0028489,0
6.552,1500,0.03325137,0.01975824,-0.0168489,0
6.562,1500,0.04725137,0.01975824,-0.0048489,0
6.572,1500,0.02925137,-0.00124176,0.0131511,0
6.582,1500,-0.00374863,-0.00024176,0.0121511,0
6.591,1500,0.00025137,0.00175824,-0.0018489,0
6.601,1500,0.02525137,0.00175824,-0.0098489,0
6.611,1500,0.02725137,0.01675824,-0.0108489,0
6.621,1500,0.03625137,0.01175824,-0.0008489,0
6.632,1500,0.03225137,0.00375824,0.0081511,0
6.642,1500,0.00625137,0.00175824,0.0031511,0
6.651,1500,0.00325137,0.00275824,-0.0088489,0
6.661,1500,0.02325137,0.01175824,-0.0048489,0
6.671,1500,0.02725137,0.01375824,0.0001511,0
6.681,1500,0.03325137,0.00175824,0.0071511,0
6.691,1500,0.02425137,0.00075824,-0.0008489,0
6.702,1500,0.01425137,0.00275824,-0.0158489,0
6.712,1500,0.00925137,0.00775824,-0.0098489,0
6.722,1500,0.02225137,0.01075824,0.0001511,0
6.732,1500,0.02925137,0.00775824,0.0061511,0
6.742,1500,0.02925137,0.00175824,0.0071511,0
6.751,1500,0.02425137,0.00575824,-0.0128489,0
6.761,1500,0.01625137,0.00875824,-0.0128489,0
6.771,1500,0.01825137,0.00075824,0.0041511,0
6.781,1500,0.02525137,0.00275824,0.0081511,0
6.791,1500,0.02125137,0.01175824,0.0051511,0
6.801,1500,0.02425137,0.01375824,-0.0048489,0
6.811,1500,0.02125137,-0.00024176,-0.0048489,0
6.821,1500,0.01925137,-0.00724176,-0.0008489,0
6.832,1500,0.02325137,0.00475824,0.0011511,0
6.842,1500,0.02525137,0.01375824,-0.0038489,0
6.852,1500,0.02525137,0.00975824,0.0001511,0
6.862,1500,0.02225137,0.00875824,-0.0008489,0.009606580190821
6.872,1500,0.02325137,0.00175824,0.0011511,0.009606580190821
6.882,1500,0.01625137,0.00375824,-0.0038489,0.009606580190821
6.892,1500,0.02525137,0.00375824,-0.0008489,0.009606580190821
6.902,1500,0.03025137,0.00675824,0.0031511,0.009606580190821
6.912,1500,0.02225137,0.00875824,0.0031511,0.009606580190821
6.922,1500,0.01625137,0.00375824,0.0011511,0.009606580190821
6.932,1500,0.01625137,0.00275824,-0.0028489,0.009606580190821
6.942,1500,0.02025137,0.00475824,-0.0048489,0.009606580190821
6.952,1500,0.02425137,0.00475824,0.0011511,0.009606580190821
6.962,1500,0.02925137,0.00675824,-0.0008489,0.009606580190821
6.971,1500,0.02625137,0.00875824,-0.0028489,0.009606580190821
6.981,1500,0.01825137,0.00275824,-0.0048489,0.009606580190821
6.991,1500,0.01625137,0.00475824,-0.0058489,0.009606580190821
7.002,1500,0.02325137,0.00675824,-0.0008489,0.009606580190821
7.012,1500,0.02325137,0.00575824,-0.0028489,0.009606580190821
7.022,1500,0.02525137,0.00275824,0.0031511,0.009606580190821
7.032,1500,0.02525137,0.00975824,-0.0018489,0.009606580190821
7.042,1500,0.02025137,0.00475824,0.0011511,0.009606580190821
7.052,1500,0.01425137,0.00475824,-0.0008489,0.009606580190821
7.062,1500,0.01825137,0.00675824,0.0001511,0.009606580190821
7.072,1500,0.02625137,0.00875824,-0.0008489,0.009606580190821
7.081,1500,0.02425137,0.00375824,0.0001511,0.009606580190821
7.092,1500,0.02225137,0.00475824,-0.0058489,0.009606580190821
7.101,1500,0.02125137,0.00075824,-0.0008489,0.009606580190821
7.111,1500,0.02125137,0.00275824,-0.0008489,0.009606580190821
7.122,1500,0.02025137,0.00875824,0.0041511,0.009606580190821
7.132,1500,0.02425137,0.00675824,0.0011511,0.009606580190821
7.141,1500,0.02525137,0.00575824,-0.0028489,0.009606580190821
7.152,1500,0.02025137,0.00875824,-0.0008489,0.009606580190821
7.162,1500,0.02125137,0.00175824,-0.0008489,0.009606580190821
7.171,1500,0.02525137,0.00375824,0.0001511,0.009606580190821
7.181,1500,0.02425137,0.00575824,0.0031511,0.009606580190821
7.191,1500,0.02525137,0.00575824,0.0031511,0.009606580190821
7.202,1500,0.02425137,0.00675824,-0.0028489,0.009606580190821
7.212,1500,0.01925137,0.00475824,-0.0048489,0.009606580190821
7.222,1500,0.02125137,0.00175824,0.0001511,0.009606580190821
7.232,1500,0.02425137,0.01075824,-0.0048489,0.009606580190821
7.242,1500,0.02725137,0.00975824,-0.0008489,0.009606580190821
7.252,1500,0.02225137,0.00275824,0.0021511,0.009606580190821
7.262,1500,0.02025137,0.00375824,0.0051511,0.009606580190821
7.272,1500,0.02225137,0.00775824,0.0011511,0.009606580190821
7.282,1500,0.02225137,0.00175824,0.0021511,0.009606580190821
7.291,1500,0.02225137,0.00275824,-0.0048489,0.009606580190821
7.301,1500,0.02425137,0.00675824,0.0031511,0.009606580190821
7.311,1500,0.02225137,0.00375824,0.0011511,0.009606580190821
7.322,1500,0.02025137,0.00575824,-0.0018489,0.009606580190821
7.332,1500,0.01725137,0.00875824,-0.0098489,0.009606580190821
7.342,1500,0.02325137,0.00875824,-0.0038489,0.009606580190821
7.352,1500,0.02225137,0.00675824,-0.0018489,0.009606580190821
7.362,1500,0.02525137,0.00875824,-0.0008489,0.009606580190821
7.372,1500,0.01925137,0.00775824,0.0021511,0.009606580190821
7.382,1500,0.01925137,0.00275824,0.0061511,0
7.392,1500,0.02125137,0.00275824,0.0061511,0
7.402,1500,0.02125137,0.00575824,0.0061511,0
7.411,1500,0.02225137,0.00975824,-0.0058489,0
7.422,1500,0.02325137,0.00375824,0.0011511,0
7.431,1500,0.02225137,0.00475824,-0.0028489,0
7.441,1500,0.02125137,0.00775824,-0.0018489,0
7.452,1500,0.02125137,0.00275824,-0.0028489,0
7.461,1500,0.02025137,0.00875824,-0.0018489,0
7.472,1500,0.02325137,0.00575824,-0.0008489,0
7.481,1500,0.02025137,0.00575824,0.0011511,0
7.492,1500,0.02025137,0.00775824,-0.0008489,0
7.502,1500,0.02425137,0.00275824,-0.0028489,0
7.511,1500,0.02225137,0.00375824,0.0001511,0
7.521,1500,0.02125137,0.01175824,-0.0038489,0
7.532,1500,0.02125137,0.00575824,0.0001511,0
7.542,1500,0.02325137,0.00375824,0.0001511,0
7.552,1500,0.02325137,0.00675824,0.0001511,0
7.562,1500,0.02125137,0.00775824,-0.0028489,0
7.572,1500,0.02325137,0.00475824,-0.0008489,0
7.581,1500,0.02225137,0.00475824,-0.0028489,0
7.592,1500,0.02225137,0.00375824,0.0001511,0
7.602,1500,0.02025137,0.00775824,0.0011511,0
7.612,1500,0.02225137,0.00575824,0.0031511,0
7.622,1500,0.01925137,0.00075824,-0.0018489,0
7.632,1500,0.02025137,0.01275824,-0.0018489,0
7.642,1500,0.02325137,0.01875824,-0.0028489,0
7.652,1500,0.06425137,0.05975824,-0.0118489,0
7.662,1500,0.09325137,0.10975824,-0.0308489,0
7.672,1500,0.08025137,0.11575824,-0.0198489,0
7.682,1500,0.13525137,0.13475824,-0.0088489,0
7.692,1500,0.14225137,0.14875824,-0.0048489,0
7.701,1500,0.12425137,0.16075824,-0.0098489,0
7.711,1500,0.10225137,0.17575824,-0.0218489,0
7.722,1500,0.14125137,0.18775824,-0.0178489,0
7.732,1500,0.15725137,0.16675824,-0.0148489,0
7.742,1500,0.12025137,0.13875824,-0.0188489,0
7.752,1500,0.15825137,0.09775824,0.0151511,0
7.762,1500,0.11425137,0.08075824,-0.0068489,0
7.772,1500,0.00825137,0.04775824,-0.0938489,0
7.782,1500,0.00425137,0.08675824,-0.0328489,0
7.791,1500,0.04925137,0.09875824,-0.0428489,0
7.802,1500,-0.02074863,0.02075824,0.0111511,0
7.812,1500,0.01525137,-0.06324176,0.0651511,0
7.821,1500,-0.06974863,0.02175824,0.0141511,0
7.832,1500,-0.03474863,0.10275824,-0.0218489,0
7.842,1500,0.07825137,0.05575824,-0.0008489,0
7.851,1500,0.04025137,-0.03324176,0.0271511,0
7.862,1500,0.05325137,-0.02824176,0.0571511,0
7.872,1500,0.03725137,0.05575824,0.0271511,0
7.881,1500,-0.01974863,0.05875824,0.0061511,0
7.892,1500,-0.01874863,-0.03924176,-0.0078489,0
7.901,1500,-0.00874863,-0.01724176,-0.0178489,105.317298181023
7.912,1500,0.00825137,0.02175824,0.0291511,105.317298181023
7.922,1500,-0.11974863,0.02075824,-0.0368489,105.317298181023
7.931,1500,0.09825137,0.02275824,-0.0048489,105.317298181023
7.942,1500,0.08225137,0.00575824,0.0081511,105.317298181023
7.952,1500,-0.01074863,-0.02924176,0.0161511,105.317298181023
7.961,1500,0.04225137,-0.00124176,-0.0048489,105.317298181023
7.972,1500,-0.00174863,0.01975824,0.0041511,105.317298181023
7.982,1500,-0.04374863,0.05475824,0.0131511,105.317298181023
7.992,1500,-0.09274863,-0.01124176,-0.0198489,105.317298181023
8.002,1500,-0.07574863,-0.04024176,0.0251511,105.317298181023
8.011,1500,0.04725137,0.01475824,-0.0228489,105.317298181023
8.022,1500,0.06725137,0.07475824,0.0041511,105.317298181023
8.032,1500,0.04225137,0.03175824,-0.0558489,105.317298181023
8.041,1500,0.09325137,-0.04924176,0.0031511,105.317298181023
8.052,1500,0.08925137,-0.00824176,0.0041511,105.317298181023
8.062,1500,-0.08974863,0.06275824,-0.0208489,105.317298181023
8.071,1500,-0.03874863,0.06475824,-0.0558489,105.317298181023
8.082,1500,0.02925137,-0.05824176,-0.0018489,105.317298181023
8.092,1500,0.03725137,-0.03624176,0.0421511,105.317298181023
8.102,1500,-0.04374863,0.01475824,0.0351511,105.317298181023
8.112,1500,-0.05174863,0.04475824,-0.0288489,105.317298181023
8.121,1500,0.05025137,-0.01524176,-0.0208489,105.317298181023
8.132,1500,-0.02374863,-0.06624176,0.0181511,105.317298181023
8.142,1500,-0.06074863,0.00275824,-0.0068489,105.317298181023
8.151,1500,0.01425137,0.04075824,-0.0258489,105.317298181023
8.161,1500,0.08125137,-0.01924176,-0.0028489,105.317298181023
8.172,1500,-0.00074863,-0.04024176,-0.0378489,105.317298181023
8.181,1500,-0.15174863,-0.08824176,-0.0458489,105.317298181023
8.192,1500,0.00125137,-0.07624176,-0.0718489,105.317298181023
8.202,1500,-0.06674863,-0.01524176,-0.0538489,105.317298181023
8.213,1500,0.00425137,0.00575824,-0.0708489,105.317298181023
8.223,1500,-0.02974863,0.01375824,-0.0328489,105.317298181023
8.233,1500,0.00225137,-0.08624176,-0.1328489,105.317298181023
8.242,1500,0.11225137,-0.04724176,0.0031511,105.317298181023
8.252,1500,-0.04574863,-0.07724176,-0.0658489,105.317298181023
8.262,1500,-0.15474863,0.00875824,0.0521511,105.317298181023
8.272,1500,-0.01174863,0.01375824,-0.0258489,105.317298181023
8.282,1500,-0.03974863,-0.01924176,-0.0558489,105.317298181023
8.292,1500,0.09225137,0.02375824,0.0501511,105.317298181023
8.302,1500,0.01525137,0.00175824,0.0221511,105.317298181023
8.312,1500,0.02325137,-0.05224176,0.0621511,105.317298181023
8.322,1500,0.10125137,0.07075824,0.2041511,105.317298181023
8.333,1500,0.01725137,-0.00624176,0.1251511,105.317298181023
8.342,1500,-0.06574863,0.05775824,0.0871511,105.317298181023
8.353,1500,0.01325137,0.04775824,0.0531511,105.317298181023
8.363,1500,-0.07574863,-0.00424176,0.0981511,105.317298181023
8.372,1500,-0.22474863,-0.02124176,-0.0048489,105.317298181023
8.382,1500,-0.06074863,0.04975824,0.0361511,105.317298181023
8.391,1500,-0.04674863,0.00975824,-0.0198489,105.317298181023
8.402,1500,-0.06674863,-0.07124176,-0.0448489,105.317298181023
8.412,1500,-0.05474863,-0.04224176,0.0761511,105.317298181023
8.421,1500,0.01625137,-0.01124176,0.0391511,179.820646330671
8.432,1500,-0.01174863,0.02575824,-0.0078489,179.820646330671
8.441,1500,-0.08674863,0.00575824,-0.0158489,179.820646330671
8.452,1500,-0.13074863,0.00375824,0.0321511,179.820646330671
8.462,1500,0.00625137,-0.00124176,0.0011511,179.820646330671
8.472,1500,-0.00974863,-0.01324176,0.0081511,179.820646330671
8.482,1500,-0.08074863,-0.04824176,-0.0638489,179.820646330671
8.492,1500,-0.12174863,-0.01724176,-0.0158489,179.820646330671
8.502,1500,0.02625137,0.00575824,-0.0358489,179.820646330671
8.511,1500,-0.05174863,-0.01424176,-0.1188489,179.820646330671
8.522,1500,0.02025137,0.03675824,-0.0408489,179.820646330671
8.532,1500,-0.09974863,-0.01824176,-0.0628489,179.820646330671
8.542,1500,0.00425137,-0.00724176,-0.0508489,179.820646330671
8.552,1500,-0.03074863,0.00375824,-0.1038489,179.820646330671
8.562,1500,-0.14774863,-0.06224176,-0.0658489,179.820646330671
8.573,1500,-0.15774863,-0.01224176,-0.0328489,179.820646330671
8.582,1500,0.07425137,0.01175824,-0.0088489,179.820646330671
8.592,1500,-0.06174863,-0.07224176,-0.1408489,179.820646330671
8.602,1500,0.02825137,0.00575824,-0.1318489,179.820646330671
8.612,1500,-0.11274863,0.03875824,-0.0468489,179.820646330671
8.622,1500,-0.02774863,-0.00924176,-0.0258489,179.820646330671
8.632,1500,0.14725137,0.06675824,0.0791511,179.820646330671
8.642,1500,0.11625137,0.05375824,0.0901511,179.820646330671
8.652,1500,-0.09874863,0.01375824,-0.0258489,179.820646330671
8.662,1500,0.02225137,0.00375824,-0.0178489,179.820646330671
8.673,1500,-0.00474863,-0.02324176,0.0261511,179.820646330671
8.683,1500,0.09725137,0.03575824,-0.0008489,179.820646330671
8.692,1500,0.01725137,-0.01924176,-0.0568489,179.820646330671
8.702,1500,0.04325137,0.00675824,0.0451511,179.820646330671
8.712,1500,0.05525137,0.01375824,0.1251511,179.820646330671
8.722,1500,0.03925137,0.01875824,0.0541511,179.820646330671
8.732,1500,-0.03974863,0.00475824,0.0041511,179.820646330671
8.742,1500,0.09025137,0.03275824,0.1411511,179.820646330671
8.752,1500,-0.04074863,-0.01024176,0.1331511,179.820646330671
8.762,1500,-0.11374863,-0.05024176,0.0611511,179.820646330671
8.773,1500,0.03825137,0.03875824,0.0681511,179.820646330671
8.783,1500,0.05725137,0.00775824,-0.0118489,179.820646330671
8.793,1500,-0.15074863,-0.03724176,-0.1658489,179.820646330671
8.803,1500,-0.11674863,0.03475824,-0.0488489,179.820646330671
8.813,1500,-0.02474863,-0.01224176,-0.0808489,179.820646330671
8.823,1500,-0.07874863,-0.06024176,-0.0928489,179.820646330671
8.833,1500,0.23925137,0.05175824,0.0341511,179.820646330671
8.842,1500,0.01325137,-0.02424176,0.0131511,179.820646330671
8.852,1500,0.04025137,-0.04724176,-0.0828489,179.820646330671
8.862,1500,0.04525137,-0.05024176,0.0021511,179.820646330671
8.872,1500,0.02225137,-0.02624176,0.0741511,179.820646330671
8.882,1500,0.01625137,-0.00924176,-0.0048489,179.820646330671
8.892,1500,-0.01474863,-0.04924176,0.0161511,179.820646330671
8.902,1500,0.02525137,-0.03624176,0.0101511,179.820646330671
8.912,1500,-0.01774863,-0.00824176,0.0061511,179.820646330671
8.922,1500,0.01425137,-0.00324176,0.0201511,179.820646330671
8.933,1500,0.00625137,-0.00324176,0.0011511,179.820646330671
8.943,1500,0.01425137,0.01375824,-0.0098489,155.350326117966
8.953,1500,-0.03174863,0.00375824,-0.0128489,155.350326117966
8.962,1500,-0.02074863,-0.02424176,-0.0298489,155.350326117966
8.972,1500,0.01925137,0.00675824,0.0101511,155.350326117966
8.983,1500,0.00725137,0.01875824,0.0051511,155.350326117966
8.993,1500,-0.00074863,0.01375824,-0.0238489,155.350326117966
9.003,1500,0.00425137,0.01675824,0.0071511,155.350326117966
9.012,1500,-0.07174863,-0.02224176,-0.0158489,155.350326117966
9.022,1500,0.03925137,-0.00324176,-0.0508489,155.350326117966
9.032,1500,-0.02674863,-0.01424176,-0.0538489,155.350326117966
9.042,1500,-0.00974863,0.01575824,0.0181511,155.350326117966
9.052,1500,-0.03074863,0.01375824,-0.0408489,155.350326117966
9.062,1500,-0.04874863,-0.00024176,0.0411511,155.350326117966
9.072,1500,0.05425137,0.00675824,0.0211511,155.350326117966
9.082,1500,0.00225137,0.02975824,0.0061511,155.350326117966
9.092,1500,-0.02474863,-0.00024176,-0.0058489,155.350326117966
9.102,1500,0.00825137,0.02575824,-0.0348489,155.350326117966
9.112,1500,-0.03074863,0.01975824,0.0151511,155.350326117966
9.122,1500,-0.04974863,-0.01624176,-0.0058489,155.350326117966
9.132,1500,0.04025137,0.02575824,-0.0068489,155.350326117966
9.142,1500,-0.00174863,-0.00324176,-0.0068489,155.350326117966
9.153,1500,-0.00774863,0.00275824,-0.0018489,155.350326117966
9.162,1500,0.00625137,0.03775824,-0.0138489,155.350326117966
9.172,1500,-0.00674863,0.00075824,-0.0108489,155.350326117966
9.183,1500,-0.04374863,-0.01024176,-0.0188489,155.350326117966
9.193,1500,0.00125137,0.01175824,-0.0038489,155.350326117966
9.203,1500,-0.04674863,-0.00724176,0.0091511,155.350326117966
9.213,1500,0.02925137,0.02475824,-0.0058489,155.350326117966
9.223,1500,0.06125137,0.02775824,-0.0178489,155.350326117966
9.233,1500,0.01625137,0.00575824,0.0051511,155.350326117966
9.242,1500,0.02325137,0.01375824,-0.0238489,155.350326117966
9.252,1500,-0.00974863,0.02675824,0.0241511,155.350326117966
9.262,1500,-0.03174863,0.00975824,0.0181511,155.350326117966
9.272,1500,-0.01374863,0.00875824,0.0021511,155.350326117966
9.282,1500,-0.01374863,0.01575824,-0.0168489,155.350326117966
9.292,1500,0.00625137,0.01475824,0.0171511,155.350326117966
9.302,1500,0.05825137,-0.01224176,-0.0368489,155.350326117966
9.313,1500,0.02525137,-0.00224176,-0.0048489,155.350326117966
9.322,1500,0.01025137,-0.00724176,0.0261511,155.350326117966
9.332,1500,0.00025137,0.05575824,0.0771511,155.350326117966
9.342,1500,-0.02174863,0.01375824,0.0181511,155.350326117966
9.352,1500,-0.04374863,-0.02624176,0.0141511,155.350326117966
9.363,1500,-0.03374863,0.00275824,-0.0078489,155.350326117966
9.373,1500,0.02325137,-0.00224176,0.0291511,155.350326117966
9.383,1500,0.01425137,0.05575824,0.0081511,155.350326117966
9.393,1500,-0.01374863,0.01375824,-0.0388489,155.350326117966
9.403,1500,-0.00274863,-0.01124176,0.0261511,155.350326117966
9.413,1500,0.01725137,0.05075824,0.0461511,155.350326117966
9.422,1500,0.00425137,-0.01924176,-0.0088489,155.350326117966
9.432,1500,0.03825137,-0.01524176,0.0181511,155.350326117966
9.442,1500,0.03425137,0.03875824,-0.0288489,155.350326117966
9.452,1500,-0.01474863,-0.02224176,-0.0358489,155.350326117966
9.463,1500,-0.00274863,0.03275824,-0.0058489,144.024655687431
9.472,1500,0.01225137,0.01175824,0.0071511,144.024655687431
9.482,1500,-0.02774863,-0.03324176,-0.0018489,144.024655687431
9.493,1500,0.03125137,0.01075824,-0.0188489,144.024655687431
9.502,1500,0.00425137,0.00975824,0.0161511,144.024655687431
9.512,1500,-0.01574863,0.01775824,-0.0208489,144.024655687431
9.522,1500,-0.01474863,0.02875824,0.0101511,144.024655687431
9.532,1500,-0.00374863,0.00375824,0.0121511,144.024655687431
9.542,1500,0.00525137,-0.01124176,0.0131511,144.024655687431
9.552,1500,0.08725137,0.02175824,0.0081511,144.024655687431
9.562,1500,0.02025137,0.00875824,-0.0058489,144.024655687431
9.573,1500,0.04325137,-0.02324176,0.0231511,144.024655687431
9.582,1500,-0.05574863,-0.03124176,-0.0068489,144.024655687431
9.592,1500,-0.03774863,-0.05024176,0.0121511,144.024655687431
9.603,1500,0.13125137,-0.04824176,0.0151511,144.024655687431
9.612,1500,0.03325137,-0.00724176,0.0211511,144.024655687431
9.622,1500,-0.00674863,-0.06524176,0.0121511,144.024655687431
9.633,1500,0.04425137,-0.05124176,0.0141511,144.024655687431
9.642,1500,0.08925137,0.02975824,0.0801511,144.024655687431
9.652,1500,-0.04174863,-0.05024176,-0.0078489,144.024655687431
9.663,1500,0.00325137,0.01275824,0.0131511,144.024655687431
9.672,1500,-0.07474863,-0.00124176,0.0011511,144.024655687431
9.682,1500,-0.04374863,-0.04024176,0.0151511,144.024655687431
9.693,1500,-0.07574863,0.02375824,0.0321511,144.024655687431
9.702,1500,-0.00274863,0.02175824,0.0041511,144.024655687431
9.712,1500,0.10825137,0.00875824,-0.0048489,144.024655687431
9.723,1500,-0.03074863,0.02675824,0.0631511,144.024655687431
9.732,1500,-0.07674863,-0.00524176,0.0121511,144.024655687431
9.742,1500,-0.04474863,-0.03224176,-0.0318489,144.024655687431
9.753,1500,0.05525137,0.00575824,-0.0048489,144.024655687431
9.763,1500,-0.00574863,-0.00824176,-0.0488489,144.024655687431
9.772,1500,-0.00374863,0.01075824,0.0041511,144.024655687431
9.782,1500,0.05225137,0.01375824,0.0081511,144.024655687431
9.793,1500,-0.02974863,-0.03724176,0.0041511,144.024655687431
9.802,1500,-0.07174863,-0.03624176,-0.0408489,144.024655687431
9.813,1500,0.03625137,-0.00824176,0.0091511,144.024655687431
9.823,1500,0.01025137,0.00475824,0.0001511,144.024655687431
9.833,1500,-0.01974863,0.02375824,-0.0258489,144.024655687431
9.843,1500,-0.05174863,-0.00724176,-0.0518489,144.024655687431
9.852,1500,0.05225137,-0.01524176,-0.0038489,144.024655687431
9.862,1500,0.07325137,-0.00024176,-0.0078489,144.024655687431
9.873,1500,-0.01574863,0.03375824,0.0291511,144.024655687431
9.882,1500,-0.05574863,0.00875824,0.0161511,144.024655687431
9.893,1500,-0.03474863,0.00975824,0.0071511,144.024655687431
9.902,1500,-0.04474863,0.00175824,-0.0058489,144.024655687431
9.912,1500,-0.00374863,-0.01724176,-0.0068489,144.024655687431
9.923,1500,0.08025137,-0.01424176,-0.0248489,144.024655687431
9.932,1500,-0.05874863,0.00875824,-0.0228489,144.024655687431
9.943,1500,-0.05974863,-0.00024176,0.0051511,144.024655687431
9.952,1500,0.03725137,0.01375824,0.0511511,144.024655687431
9.963,1500,-0.00574863,0.00675824,0.0351511,144.024655687431
9.972,1500,0.02925137,-0.02224176,-0.0168489,144.024655687431
9.982,1500,-0.00874863,-0.01824176,-0.0038489,123.87686844487
9.993,1500,-0.05974863,-0.01424176,-0.0378489,123.87686844487
10.003,1500,-0.10174863,0.00175824,-0.0268489,123.87686844487
10.012,1500,0.00325137,0.00275824,0.0141511,123.87686844487
10.022,1500,0.17425137,0.01075824,0.0301511,123.87686844487
10.032,1500,0.01625137,-0.02324176,-0.0068489,123.87686844487
10.043,1500,-0.02874863,-0.01324176,0.0121511,123.87686844487
10.052,1500,-0.04174863,0.01075824,0.0091511,123.87686844487
10.063,1500,-0.02274863,0.00175824,-0.0028489,123.87686844487
10.072,1500,-0.03074863,-0.00424176,0.0041511,123.87686844487
10.083,1500,-0.03374863,0.00275824,0.0031511,123.87686844487
10.092,1500,-0.03374863,0.00575824,0.0011511,123.87686844487
10.103,1500,-0.01874863,-0.00624176,-0.0378489,123.87686844487
10.112,1500,-0.07574863,0.01375824,-0.0078489,123.87686844487
10.122,1500,-0.01374863,-0.01524176,-0.0078489,123.87686844487
10.133,1500,0.06725137,-0.00024176,-0.0058489,123.87686844487
10.142,1500,-0.03874863,0.00475824,0.0411511,123.87686844487
10.153,1500,-0.09974863,-0.00924176,-0.0008489,123.87686844487
10.162,1500,-0.04174863,-0.00024176,0.0091511,123.87686844487
10.173,1500,-0.01674863,-0.01424176,0.0031511,123.87686844487
10.183,1500,0.04725137,0.00775824,0.0401511,123.87686844487
10.193,1500,-0.00674863,-0.00324176,-0.0128489,123.87686844487
10.203,1500,-0.01874863,-0.00524176,-0.0008489,123.87686844487
10.213,1500,0.03325137,0.00875824,0.0111511,123.87686844487
10.223,1500,-0.02674863,-0.01724176,-0.0218489,123.87686844487
10.233,1500,-0.01574863,0.01975824,-0.0058489,123.87686844487
10.242,1500,0.01525137,0.00875824,0.0071511,123.87686844487
10.253,1500,-0.05274863,-0.01424176,-0.0078489,123.87686844487
10.263,1500,-0.04074863,0.03975824,0.0251511,123.87686844487
10.272,1500,-0.05774863,-0.00024176,-0.0038489,123.87686844487
10.283,1500,-0.03774863,-0.01424176,0.0081511,123.87686844487
10.292,1500,0.04325137,-0.00624176,-0.0518489,123.87686844487
10.303,1500,0.01325137,-0.02924176,0.0121511,123.87686844487
10.312,1500,-0.04874863,-0.05324176,0.0491511,123.87686844487
10.323,1500,-0.09574863,-0.09124176,-0.0558489,123.87686844487
10.333,1500,0.01025137,-0.06724176,0.0141511,123.87686844487
10.342,1500,-0.20174863,-0.13824176,-0.0328489,123.87686844487
10.353,1500,-0.05774863,-0.09624176,0.0321511,123.87686844487
10.363,1500,-0.04574863,-0.08724176,0.0311511,123.87686844487
10.373,1500,-0.12974863,-0.10624176,-0.0578489,123.87686844487
10.384,1500,-0.03374863,-0.06824176,0.0351511,123.87686844487
10.394,1500,-0.04274863,-0.04924176,0.0461511,123.87686844487
10.403,1500,-0.04574863,-0.04424176,0.0041511,123.87686844487
10.413,1500,0.06325137,-0.04324176,-0.0658489,123.87686844487
10.423,1500,0.03925137,-0.03024176,0.0031511,123.87686844487
10.433,1500,0.05425137,0.00975824,0.0391511,123.87686844487
10.443,1500,-0.03374863,-0.01724176,0.0001511,123.87686844487
10.453,1500,0.00325137,-0.04824176,-0.0768489,123.87686844487
10.463,1500,0.01725137,0.01775824,0.0141511,123.87686844487
10.472,1500,-0.06974863,-0.11024176,-0.1548489,123.87686844487
10.483,1500,0.00625137,-0.00324176,0.0211511,123.87686844487
10.493,1500,-0.07074863,-0.04324176,-0.0218489,123.87686844487
10.503,1500,-0.05274863,0.02175824,0.0491511,123.87686844487
10.513,1500,-0.10774863,0.01575824,0.0271511,90.74651585661
10.522,1500,-0.04474863,-0.01824176,-0.0078489,90.74651585661
10.533,1500,0.07225137,0.12875824,0.1921511,90.74651585661
10.543,1500,-0.09174863,-0.02024176,-0.0248489,90.74651585661
10.553,1500,0.10125137,0.07575824,0.1631511,90.74651585661
10.563,1500,0.01925137,-0.02724176,-0.0118489,90.74651585661
10.573,1500,0.00025137,0.00275824,0.0081511,90.74651585661
10.583,1500,-0.00374863,-0.01724176,-0.0128489,90.74651585661
10.594,1500,-0.09474863,-0.02824176,-0.0208489,90.74651585661
10.604,1500,0.11625137,-0.01024176,-0.0108489,90.74651585661
10.614,1500,0.02525137,0.01875824,0.0751511,90.74651585661
10.624,1500,0.10425137,0.00275824,0.0261511,90.74651585661
10.633,1500,0.03225137,0.01475824,0.0301511,90.74651585661
10.643,1500,0.16825137,0.01775824,0.0761511,90.74651585661
10.653,1500,-0.03374863,0.01075824,0.0531511,90.74651585661
10.664,1500,0.12425137,0.03075824,0.0341511,90.74651585661
10.674,1500,-0.01274863,-0.03424176,-0.0868489,90.74651585661
10.683,1500,0.01325137,-0.00124176,-0.0768489,90.74651585661
10.693,1500,-0.02574863,-0.04424176,-0.0978489,90.74651585661
10.703,1500,-0.10474863,-0.03924176,-0.0678489,90.74651585661
10.713,1500,-0.03974863,-0.02124176,-0.0818489,90.74651585661
10.723,1500,-0.13974863,0.01075824,0.1021511,90.74651585661
10.733,1500,-0.07674863,0.01375824,0.0681511,90.74651585661
10.743,1500,-0.07974863,0.01475824,0.0561511,90.74651585661
10.752,1500,0.00725137,-0.01824176,0.0351511,90.74651585661
10.763,1500,0.14625137,0.05075824,0.0881511,90.74651585661
10.772,1500,-0.05774863,-0.02624176,-0.0008489,90.74651585661
10.783,1500,0.12925137,-0.00024176,-0.0008489,90.74651585661
10.793,1500,0.05325137,0.00975824,0.0161511,90.74651585661
10.803,1500,0.08225137,-0.04924176,-0.1478489,90.74651585661
10.813,1500,0.09525137,-0.00924176,-0.0768489,90.74651585661
10.823,1500,0.01825137,-0.08524176,-0.1548489,90.74651585661
10.833,1500,0.03325137,-0.00824176,-0.0288489,90.74651585661
10.843,1500,-0.08474863,-0.03824176,-0.0378489,90.74651585661
10.854,1500,0.03525137,0.00175824,0.0151511,90.74651585661
10.864,1500,-0.09574863,-0.00624176,-0.0288489,90.74651585661
10.874,1500,-0.04674863,0.00075824,0.0161511,90.74651585661
10.884,1500,0.02425137,-0.00324176,0.0021511,90.74651585661
10.893,1500,-0.03274863,-0.03224176,-0.0258489,90.74651585661
10.903,1500,-0.03974863,-0.00224176,-0.0118489,90.74651585661
10.913,1500,-0.07174863,-0.02024176,0.0061511,90.74651585661
10.923,1500,-0.08274863,-0.03524176,-0.0368489,90.74651585661
10.933,1500,0.04125137,-0.02524176,0.0061511,90.74651585661
10.942,1500,-0.01974863,0.03075824,0.1281511,90.74651585661
10.953,1500,0.10825137,0.00375824,0.0261511,90.74651585661
10.963,1500,0.08125137,0.05575824,0.1161511,90.74651585661
10.973,1500,0.14025137,-0.00124176,0.0041511,90.74651585661
10.983,1500,-0.06574863,-0.01024176,0.0101511,90.74651585661
10.993,1500,-0.07474863,-0.03724176,-0.0708489,90.74651585661
11.003,1500,0.00025137,-0.01824176,-0.0208489,90.74651585661
11.013,1500,-0.11374863,-0.04224176,-0.0398489,90.74651585661
11.023,1500,0.00325137,-0.00724176,0.0001511,90.74651585661
11.033,1500,-0.16774863,-0.06224176,-0.0258489,40.3580997356076
11.043,1500,-0.07574863,-0.02224176,0.0131511,40.3580997356076
11.053,1500,-0.13974863,-0.03724176,0.0351511,40.3580997356076
11.063,1500,0.04025137,0.00875824,0.0471511,40.3580997356076
11.073,1500,0.03525137,-0.01724176,0.0321511,40.3580997356076
11.083,1500,0.00325137,-0.00824176,-0.0038489,40.3580997356076
11.093,1500,0.02525137,-0.01524176,-0.0368489,40.3580997356076
11.103,1500,-0.03174863,0.00175824,0.0221511,40.3580997356076
11.113,1500,-0.09974863,-0.02724176,-0.0358489,40.3580997356076
11.123,1500,0.02525137,0.00175824,0.0141511,40.3580997356076
11.133,1500,-0.03074863,-0.02924176,0.0051511,40.3580997356076
11.143,1500,0.01525137,-0.00324176,0.0761511,40.3580997356076
11.153,1500,0.13125137,0.13375824,0.2701511,40.3580997356076
11.163,1500,-0.03474863,-0.05624176,-0.0718489,40.3580997356076
11.173,1500,0.15225137,0.10175824,0.2131511,40.3580997356076
11.183,1500,-0.07574863,-0.02924176,0.0431511,40.3580997356076
11.194,1500,0.10725137,0.02975824,0.0551511,40.3580997356076
11.204,1500,-0.00174863,-0.00024176,0.0151511,40.3580997356076
11.214,1500,0.02825137,-0.03224176,-0.0898489,40.3580997356076
11.224,1500,-0.01274863,-0.03724176,-0.1128489,40.3580997356076
11.233,1500,-0.04874863,-0.09624176,-0.2008489,40.3580997356076
11.243,1500,-0.04374863,-0.01424176,0.0021511,40.3580997356076
11.253,1500,-0.14374863,-0.06424176,-0.0918489,40.3580997356076
11.263,1500,0.02325137,-0.00524176,0.0291511,40.3580997356076
11.273,1500,-0.03574863,-0.01224176,0.0071511,40.3580997356076
11.284,1500,0.07625137,-0.01024176,0.0121511,40.3580997356076
11.294,1500,-0.02074863,-0.01124176,0.0061511,40.3580997356076
11.304,1500,0.13725137,0.00575824,0.0191511,40.3580997356076
11.314,1500,-0.01574863,-0.01824176,0.0041511,40.3580997356076
11.323,1500,-0.08674863,-0.02824176,-0.0628489,40.3580997356076
11.333,1500,-0.06274863,-0.01224176,-0.0388489,40.3580997356076
11.343,1500,-0.30774863,-0.06924176,-0.0708489,40.3580997356076
11.353,1500,-0.00774863,0.01775824,0.0441511,40.3580997356076
11.363,1500,-0.20074863,-0.05324176,-0.0108489,40.3580997356076
11.373,1500,-0.00074863,0.01375824,0.0711511,40.3580997356076
11.383,1500,-0.10774863,-0.05624176,0.0201511,40.3580997356076
11.394,1500,-0.06674863,0.01175824,0.0441511,40.3580997356076
11.404,1500,0.08125137,0.05675824,0.0471511,40.3580997356076
11.413,1500,-0.08474863,-0.06224176,-0.1048489,40.3580997356076
11.423,1500,0.23425137,0.07875824,0.0501511,40.3580997356076
11.433,1500,-0.01174863,-0.06624176,-0.0818489,40.3580997356076
11.443,1500,-0.00374863,-0.08624176,-0.1468489,40.3580997356076
11.453,1500,0.02825137,-0.00724176,-0.0128489,40.3580997356076
11.463,1500,-0.23074863,-0.15324176,-0.2408489,40.3580997356076
11.473,1500,0.06525137,0.02675824,0.0441511,40.3580997356076
11.483,1500,-0.07874863,-0.07824176,-0.0528489,40.3580997356076
11.494,1500,0.00625137,-0.01724176,0.0361511,40.3580997356076
11.504,1500,-0.01274863,0.00475824,0.0641511,40.3580997356076
11.514,1500,0.00525137,-0.00424176,0.0161511,40.3580997356076
11.524,1500,-0.11374863,-0.02524176,-0.0078489,40.3580997356076
11.534,1500,0.04325137,-0.00824176,0.0161511,40.3580997356076
11.544,1500,-0.02474863,-0.02424176,0.0061511,40.3580997356076
11.553,1500,0.04825137,-0.02824176,-0.0048489,43.3917042535241
11.563,1500,-0.03074863,-0.00524176,0.0211511,43.3917042535241
11.573,1500,0.08725137,-0.01324176,0.0241511,43.3917042535241
11.583,1500,-0.05274863,-0.00324176,0.0471511,43.3917042535241
11.594,1500,0.12725137,-0.01724176,0.0251511,43.3917042535241
11.604,1500,0.04725137,0.01275824,0.0791511,43.3917042535241
11.614,1500,0.14525137,-0.01824176,0.0171511,43.3917042535241
11.624,1500,0.00825137,0.02575824,0.0701511,43.3917042535241
11.634,1500,0.11025137,-0.01224176,-0.0148489,43.3917042535241
11.643,1500,0.07525137,0.01375824,0.0141511,43.3917042535241
11.653,1500,0.18025137,0.03575824,0.0211511,43.3917042535241
11.663,1500,0.02525137,-0.03624176,-0.0378489,43.3917042535241
11.673,1500,-0.01874863,-0.01624176,-0.0368489,43.3917042535241
11.683,1500,-0.03974863,-0.02824176,-0.0248489,43.3917042535241
11.693,1500,-0.15674863,-0.03524176,0.0041511,43.3917042535241
11.703,1500,0.00325137,0.00275824,0.0571511,43.3917042535241
11.713,1500,-0.08674863,-0.04024176,0.0121511,43.3917042535241
11.723,1500,-0.05274863,0.00575824,0.0531511,43.3917042535241
11.734,1500,0.01325137,0.00175824,0.0481511,43.3917042535241
11.744,1500,-0.04574863,-0.02924176,-0.0138489,43.3917042535241
11.754,1500,-0.01574863,-0.03224176,-0.0288489,43.3917042535241
11.764,1500,-0.04774863,-0.02024176,-0.0558489,43.3917042535241
11.774,1500,0.07525137,-0.01524176,-0.0198489,43.3917042535241
11.783,1500,-0.00474863,-0.02124176,-0.0178489,43.3917042535241
11.793,1500,-0.02474863,0.02875824,0.0581511,43.3917042535241
11.803,1500,-0.06174863,-0.03824176,-0.0448489,43.3917042535241
11.814,1500,0.05425137,0.03175824,0.1101511,43.3917042535241
11.824,1500,-0.06674863,-0.04124176,-0.0398489,43.3917042535241
11.834,1500,0.05725137,-0.00424176,0.0231511,43.3917042535241
11.844,1500,-0.04374863,-0.02724176,0.0091511,43.3917042535241
11.854,1500,-0.13374863,-0.11024176,-0.2028489,43.3917042535241
11.864,1500,-0.00074863,-0.00024176,-0.0088489,43.3917042535241
11.873,1500,-0.08174863,-0.06824176,-0.1408489,43.3917042535241
11.883,1500,0.06325137,0.00475824,0.0451511,43.3917042535241
11.894,1500,-0.02374863,-0.05324176,-0.1368489,43.3917042535241
11.904,1500,-0.05474863,-0.02824176,-0.0728489,43.3917042535241
11.914,1500,-0.09474863,-0.03424176,-0.0458489,43.3917042535241
11.924,1500,0.02325137,-0.01624176,0.0161511,43.3917042535241
11.934,1500,-0.03674863,0.01875824,0.0821511,43.3917042535241
11.944,1500,0.09825137,-0.00324176,0.0051511,43.3917042535241
11.954,1500,-0.01874863,-0.03524176,-0.0298489,43.3917042535241
11.963,1500,0.10925137,0.04075824,0.0231511,43.3917042535241
11.973,1500,-0.01974863,-0.08424176,-0.1368489,43.3917042535241
11.983,1500,-0.07574863,-0.06324176,-0.0918489,43.3917042535241
11.993,1500,-0.01574863,-0.00924176,-0.0038489,43.3917042535241
12.003,1500,-0.25074863,-0.09424176,-0.0758489,43.3917042535241
12.013,1500,0.00725137,0.00575824,-0.0388489,43.3917042535241
12.024,1500,-0.16474863,-0.07724176,-0.0478489,43.3917042535241
12.033,1500,-0.00974863,-0.00824176,0.0081511,43.3917042535241
12.043,1500,0.11225137,0.02375824,0.0801511,43.3917042535241
12.053,1500,0.00525137,-0.04524176,-0.0218489,43.3917042535241
12.064,1500,0.06825137,0.03075824,0.0511511,43.3917042535241
12.074,1500,-0.01074863,-0.03224176,0.0161511,46.6031408385754
12.084,1500,-0.07374863,-0.08324176,-0.1318489,46.6031408385754
12.094,1500,0.01925137,-0.01024176,0.0041511,46.6031408385754
12.104,1500,-0.14774863,-0.06524176,-0.0368489,46.6031408385754
12.114,1500,-0.08174863,-0.00624176,0.0281511,46.6031408385754
12.124,1500,-0.11874863,-0.01924176,-0.0128489,46.6031408385754
12.134,1500,-0.03974863,0.01275824,0.0281511,46.6031408385754
12.144,1500,0.05625137,0.05975824,0.1711511,46.6031408385754
12.154,1500,-0.01274863,-0.02624176,0.0281511,46.6031408385754
12.164,1500,0.01725137,0.09575824,0.2381511,46.6031408385754
12.174,1500,-0.09574863,-0.05324176,-0.0438489,46.6031408385754
12.184,1500,0.05725137,0.01375824,0.0531511,46.6031408385754
12.194,1500,0.06225137,-0.02824176,-0.0098489,46.6031408385754
12.204,1500,-0.04274863,-0.06124176,-0.1198489,46.6031408385754
12.214,1500,0.07925137,-0.01824176,0.0171511,46.6031408385754
12.224,1500,-0.08274863,-0.04424176,-0.0478489,46.6031408385754
12.234,1500,0.11425137,0.00175824,0.0451511,46.6031408385754
12.243,1500,-0.00474863,0.02575824,0.1141511,46.6031408385754
12.253,1500,0.14725137,0.01475824,0.0531511,46.6031408385754
12.264,1500,-0.02374863,0.03875824,0.1141511,46.6031408385754
12.274,1500,0.06725137,0.00275824,0.0161511,46.6031408385754
12.284,1500,0.00125137,-0.02324176,-0.0128489,46.6031408385754
12.294,1500,0.10225137,0.02075824,-0.0168489,46.6031408385754
12.303,1500,-0.05174863,-0.05324176,-0.0808489,46.6031408385754
12.313,1500,-0.06874863,0.04075824,-0.0078489,46.6031408385754
12.323,1500,-0.03374863,-0.04224176,-0.0598489,46.6031408385754
12.333,1500,-0.15574863,0.00275824,-0.0278489,46.6031408385754
12.344,1500,-0.05774863,-0.00524176,-0.0068489,46.6031408385754
12.353,1500,0.01325137,-0.00524176,0.0461511,46.6031408385754
12.364,1500,0.06725137,0.01675824,0.0071511,46.6031408385754
12.373,1500,-0.03674863,0.00175824,0.0191511,46.6031408385754
12.383,1500,0.00125137,0.00475824,0.0021511,46.6031408385754
12.394,1500,0.00025137,-0.00824176,-0.0438489,46.6031408385754
12.403,1500,0.02725137,0.02075824,0.0061511,46.6031408385754
12.414,1500,-0.10374863,0.00975824,0.0041511,46.6031408385754
12.423,1500,-0.00274863,0.02575824,0.0221511,46.6031408385754
12.434,1500,-0.01574863,0.08175824,0.0961511,46.6031408385754
12.443,1500,-0.19274863,0.00175824,-0.0088489,46.6031408385754
12.453,1500,0.00925137,0.05375824,0.0211511,46.6031408385754
12.464,1500,-0.03774863,0.01375824,0.0161511,46.6031408385754
12.473,1500,0.29925137,0.09475824,0.1041511,46.6031408385754
12.484,1500,-0.09374863,0.00675824,-0.0438489,46.6031408385754
12.493,1500,-0.03474863,0.06875824,0.0311511,46.6031408385754
12.503,1500,-0.13874863,0.01275824,0.0041511,46.6031408385754
12.514,1500,0.07425137,0.01475824,0.0251511,46.6031408385754
12.523,1500,0.12225137,0.09175824,0.1281511,46.6031408385754
12.534,1500,-0.07174863,-0.04324176,-0.0918489,46.6031408385754
12.544,1500,-0.16874863,0.00375824,-0.0728489,46.6031408385754
12.553,1500,0.01425137,-0.00624176,-0.1188489,46.6031408385754
12.564,1500,-0.11174863,-0.02024176,-0.1328489,46.6031408385754
12.574,1500,-0.01974863,-0.00624176,0.1051511,46.6031408385754
12.583,1500,0.07625137,-0.00024176,-0.0038489,46.6031408385754
12.594,1500,0.00825137,-0.05324176,-0.0598489,46.6031408385754
12.604,1500,-0.01574863,0.00075824,-0.0198489,78.1742949382749
12.613,1500,0.05125137,-0.02524176,0.0041511,78.1742949382749
12.624,1500,-0.15974863,-0.08924176,-0.0598489,78.1742949382749
12.633,1500,-0.11874863,-0.04324176,-0.0198489,78.1742949382749
12.643,1500,0.01325137,0.07375824,0.1421511,78.1742949382749
12.654,1500,0.02625137,-0.01724176,0.0041511,78.1742949382749
12.664,1500,-0.07574863,-0.10724176,-0.1718489,78.1742949382749
12.674,1500,0.02425137,-0.03024176,-0.0558489,78.1742949382749
12.683,1500,-0.13774863,-0.08524176,0.0031511,78.1742949382749
12.693,1500,0.02025137,0.04875824,0.1261511,78.1742949382749
12.704,1500,-0.00874863,-0.05024176,-0.0608489,78.1742949382749
12.714,1500,0.04025137,0.02475824,-0.0008489,78.1742949382749
12.724,1500,-0.07374863,0.00375824,-0.0008489,78.1742949382749
12.733,1500,-0.05074863,-0.06424176,-0.1398489,78.1742949382749
12.743,1500,-0.02174863,0.01175824,-0.0158489,78.1742949382749
12.754,1500,0.03925137,-0.01824176,-0.0268489,78.1742949382749
12.764,1500,-0.04374863,-0.02524176,-0.0138489,78.1742949382749
12.774,1500,-0.00374863,0.01275824,0.0181511,78.1742949382749
12.784,1500,0.02025137,-0.00224176,-0.0178489,78.1742949382749
12.794,1500,0.02325137,-0.01924176,-0.0018489,78.1742949382749
12.804,1500,-0.13374863,-0.04024176,-0.0008489,78.1742949382749
12.815,1500,0.04525137,-0.02324176,0.0001511,78.1742949382749
12.823,1500,0.01025137,-0.04824176,-0.0048489,78.1742949382749
12.834,1500,-0.10274863,-0.01124176,-0.0608489,78.1742949382749
12.844,1500,-0.06474863,-0.00924176,0.0071511,78.1742949382749
12.853,1500,0.12425137,0.00775824,-0.0218489,78.1742949382749
12.864,1500,-0.04374863,-0.02124176,-0.0248489,78.1742949382749
12.874,1500,0.11725137,0.00275824,0.0201511,78.1742949382749
12.883,1500,0.03225137,0.00775824,0.0181511,78.1742949382749
12.894,1500,-0.08774863,0.01275824,0.0311511,78.1742949382749
12.904,1500,-0.01374863,0.02275824,-0.0068489,78.1742949382749
12.914,1500,-0.10174863,-0.02724176,-0.0528489,78.1742949382749
12.923,1500,-0.01674863,-0.01724176,-0.0458489,78.1742949382749
12.934,1500,-0.02374863,0.00575824,0.0191511,78.1742949382749
12.944,1500,0.02225137,0.04075824,0.0551511,78.1742949382749
12.953,1500,0.00525137,-0.03824176,-0.0138489,78.1742949382749
12.964,1500,0.10825137,0.00375824,0.0171511,78.1742949382749
12.974,1500,-0.19674863,-0.10624176,0.0081511,78.1742949382749
12.983,1500,-0.08274863,-0.04024176,0.0291511,78.1742949382749
12.994,1500,0.05225137,-0.01624176,-0.0208489,78.1742949382749
13.004,1500,0.03225137,0.02875824,0.0141511,78.1742949382749
13.014,1500,0.02125137,-0.00724176,-0.0058489,78.1742949382749
13.024,1500,0.01225137,0.00675824,0.0181511,78.1742949382749
13.033,1500,-0.03674863,-0.00524176,-0.0258489,78.1742949382749
13.044,1500,-0.16774863,-0.06724176,-0.0858489,78.1742949382749
13.054,1500,0.00825137,0.03675824,0.0271511,78.1742949382749
13.063,1500,-0.04774863,-0.00624176,0.0101511,78.1742949382749
13.074,1500,0.00725137,-0.02024176,0.0251511,78.1742949382749
13.084,1500,-0.05974863,-0.02824176,-0.0188489,78.1742949382749
13.093,1500,-0.08574863,0.00575824,0.1201511,78.1742949382749
13.104,1500,-0.00574863,0.00575824,0.0921511,78.1742949382749
13.114,1500,-0.05174863,-0.03224176,-0.0018489,78.1742949382749
13.123,1500,-0.12274863,-0.04924176,-0.0798489,110.508520629355
13.134,1500,0.00125137,-0.01124176,0.0151511,110.508520629355
13.144,1500,-0.02674863,-0.04024176,-0.0798489,110.508520629355
13.153,1500,0.04625137,0.00075824,-0.0338489,110.508520629355
13.164,1500,0.14025137,-0.00624176,-0.0108489,110.508520629355
13.174,1500,0.00325137,0.00975824,0.0151511,110.508520629355
13.183,1500,-0.07074863,-0.01324176,-0.0128489,110.508520629355
13.194,1500,0.01725137,0.00975824,0.0091511,110.508520629355
13.204,1500,-0.05974863,-0.01124176,-0.0328489,110.508520629355
13.213,1500,-0.02274863,0.00575824,-0.0988489,110.508520629355
13.224,1500,-0.04474863,-0.01624176,-0.0158489,110.508520629355
13.234,1500,-0.00274863,-0.02124176,-0.0428489,110.508520629355
13.244,1500,-0.04474863,-0.05624176,0.0061511,110.508520629355
13.254,1500,-0.04874863,-0.07024176,0.0261511,110.508520629355
13.263,1500,-0.02074863,-0.10024176,0.0021511,110.508520629355
13.274,1500,-0.07074863,-0.15124176,0.0301511,110.508520629355
13.284,1500,-0.06074863,-0.16824176,0.0181511,110.508520629355
13.294,1500,-0.09874863,-0.18824176,0.0101511,110.508520629355
13.304,1500,-0.04974863,-0.20524176,0.0131511,110.508520629355
13.314,1500,-0.05274863,-0.17224176,0.0211511,110.508520629355
13.325,1500,0.07225137,-0.11324176,0.0271511,110.508520629355
13.334,1500,0.03525137,-0.08124176,0.1961511,110.508520629355
13.344,1500,-0.11174863,-0.18224176,0.0401511,110.508520629355
13.354,1500,-0.01074863,-0.19024176,-0.0318489,110.508520629355
13.364,1500,-0.03074863,-0.19124176,0.0021511,110.508520629355
13.373,1500,-0.04174863,-0.08324176,0.0271511,110.508520629355
13.384,1500,-0.11274863,-0.02724176,-0.0198489,110.508520629355
13.394,1500,-0.03474863,-0.03024176,-0.0308489,110.508520629355
13.404,1500,-0.03574863,-0.00624176,-0.0098489,110.508520629355
13.414,1500,0.11225137,-0.00224176,0.0281511,110.508520629355
13.423,1500,-0.08874863,-0.07424176,0.0011511,110.508520629355
13.434,1500,-0.02674863,-0.01424176,-0.0018489,110.508520629355
13.443,1500,0.05025137,-0.00024176,0.0131511,110.508520629355
13.454,1500,0.01225137,-0.01724176,-0.0078489,110.508520629355
13.464,1500,-0.08574863,0.03975824,-0.0008489,110.508520629355
13.474,1500,-0.07074863,-0.00724176,-0.0108489,110.508520629355
13.484,1500,0.00025137,-0.00024176,0.0461511,110.508520629355
13.493,1500,-0.02174863,0.01375824,0.0641511,110.508520629355
13.504,1500,-0.02574863,-0.02824176,0.0111511,110.508520629355
13.514,1500,0.00725137,-0.04624176,-0.1058489,110.508520629355
13.524,1500,0.02725137,0.00875824,0.0061511,110.508520629355
13.535,1500,0.14425137,-0.01024176,0.0141511,110.508520629355
13.544,1500,0.04025137,-0.00524176,0.0051511,110.508520629355
13.554,1500,-0.04174863,-0.00424176,0.0071511,110.508520629355
13.564,1500,0.02525137,-0.00224176,0.0301511,110.508520629355
13.574,1500,0.04325137,0.01275824,0.0271511,110.508520629355
13.584,1500,0.04325137,-0.00224176,0.0731511,110.508520629355
13.594,1500,0.01325137,-0.02824176,-0.0348489,110.508520629355
13.604,1500,-0.09174863,0.01775824,-0.0308489,110.508520629355
13.614,1500,-0.00974863,0.00975824,-0.0158489,110.508520629355
13.624,1500,0.01225137,0.01775824,-0.0218489,110.508520629355
13.634,1500,-0.03874863,0.00275824,0.0721511,110.508520629355
13.644,1500,-0.07674863,-0.04524176,-0.0108489,67.1329340484713
13.653,1500,0.07625137,-0.00424176,0.0611511,67.1329340484713
13.664,1500,0.02325137,0.01975824,0.0541511,67.1329340484713
13.674,1500,-0.01974863,-0.00724176,-0.0068489,67.1329340484713
13.685,1500,0.06125137,-0.00324176,0.0031511,67.1329340484713
13.695,1500,-0.00874863,-0.03624176,-0.0158489,67.1329340484713
13.704,1500,-0.00274863,-0.02024176,-0.0098489,67.1329340484713
13.714,1500,0.03325137,0.01075824,0.0171511,67.1329340484713
13.724,1500,-0.01074863,0.01175824,-0.0368489,67.1329340484713
13.734,1500,-0.05574863,-0.02224176,-0.0278489,67.1329340484713
13.745,1500,0.01725137,-0.00524176,-0.0098489,67.1329340484713
13.754,1500,-0.04374863,0.01275824,-0.0198489,67.1329340484713
13.764,1500,-0.10174863,-0.02324176,-0.0218489,67.1329340484713
13.774,1500,0.01425137,-0.01724176,0.0541511,67.1329340484713
13.784,1500,0.08125137,0.02475824,0.0981511,67.1329340484713
13.794,1500,0.03025137,-0.04024176,-0.0018489,67.1329340484713
13.804,1500,0.05625137,-0.00024176,0.0391511,67.1329340484713
13.814,1500,0.00425137,-0.02324176,0.0091511,67.1329340484713
13.824,1500,-0.09074863,-0.02824176,0.0371511,67.1329340484713
13.835,1500,-0.05074863,0.02375824,0.0121511,67.1329340484713
13.845,1500,0.02225137,0.01375824,-0.0378489,67.1329340484713
13.854,1500,-0.01574863,-0.02024176,-0.0528489,67.1329340484713
13.864,1500,0.03325137,-0.00724176,-0.0248489,67.1329340484713
13.874,1500,0.04125137,0.00475824,-0.0588489,67.1329340484713
13.884,1500,0.00225137,-0.00024176,-0.0418489,67.1329340484713
13.894,1500,-0.01874863,-0.00524176,0.0071511,67.1329340484713
13.905,1500,0.02525137,0.02675824,0.0711511,67.1329340484713
13.915,1500,0.01125137,-0.00624176,0.0211511,67.1329340484713
13.925,1500,0.04425137,-0.02524176,-0.0238489,67.1329340484713
13.934,1500,0.02125137,-0.01724176,-0.0148489,67.1329340484713
13.945,1500,-0.01374863,0.01375824,0.0081511,67.1329340484713
13.954,1500,0.05825137,0.02575824,0.0621511,67.1329340484713
13.964,1500,-0.05174863,-0.00624176,-0.0198489,67.1329340484713
13.974,1500,-0.03374863,-0.00724176,0.0351511,67.1329340484713
13.984,1500,-0.00774863,-0.00824176,0.0091511,67.1329340484713
13.994,1500,-0.01674863,-0.00024176,0.0111511,67.1329340484713
14.004,1500,-0.01674863,-0.00824176,-0.0108489,67.1329340484713
14.014,1500,-0.07074863,-0.03424176,-0.0048489,67.1329340484713
14.024,1500,0.04625137,0.00775824,0.0481511,67.1329340484713
14.034,1500,0.10825137,-0.02824176,0.0391511,67.1329340484713
14.044,1500,-0.06574863,-0.02624176,0.0171511,67.1329340484713
14.054,1500,-0.03474863,0.02275824,-0.0178489,67.1329340484713
14.064,1500,0.04725137,0.04775824,0.0491511,67.1329340484713
14.074,1500,-0.02274863,0.05275824,-0.0378489,67.1329340484713
14.084,1500,0.15825137,0.06075824,0.0401511,67.1329340484713
14.094,1500,-0.09274863,0.01875824,-0.0238489,67.1329340484713
14.104,1500,0.04025137,0.06175824,-0.0528489,67.1329340484713
14.114,1500,0.06325137,0.06775824,-0.0068489,67.1329340484713
14.124,1500,-0.01474863,0.02075824,-0.0598489,67.1329340484713
14.134,1500,-0.08674863,0.00775824,-0.0168489,67.1329340484713
14.145,1500,-0.09174863,0.01975824,-0.0028489,67.1329340484713
14.155,1500,0.02225137,0.00675824,0.0151511,67.1329340484713
14.165,1500,0.02525137,0.02875824,0.0071511,93.4377341581913
14.175,1500,-0.03974863,0.02975824,0.0401511,93.4377341581913
14.185,1500,-0.01174863,0.00475824,-0.0108489,93.4377341581913
14.195,1500,0.02625137,0.04375824,0.0401511,93.4377341581913
14.204,1500,0.05625137,0.00975824,-0.0008489,93.4377341581913
14.214,1500,0.00025137,-0.02024176,-0.0198489,93.4377341581913
14.225,1500,0.03525137,-0.01424176,-0.0018489,93.4377341581913
14.235,1500,-0.01574863,-0.01724176,-0.0238489,93.4377341581913
14.245,1500,-0.02474863,-0.00624176,0.0081511,93.4377341581913
14.255,1500,0.02825137,0.02875824,0.0611511,93.4377341581913
14.265,1500,-0.01374863,0.01375824,-0.0138489,93.4377341581913
14.275,1500,0.06825137,-0.01024176,-0.0168489,93.4377341581913
14.285,1500,-0.05474863,0.01975824,-0.0038489,93.4377341581913
14.295,1500,0.05925137,-0.02024176,-0.0408489,93.4377341581913
14.304,1500,-0.15674863,-0.03524176,-0.0288489,93.4377341581913
14.314,1500,-0.02774863,0.01175824,0.0071511,93.4377341581913
14.324,1500,-0.09574863,-0.05324176,-0.0168489,93.4377341581913
14.334,1500,-0.01874863,-0.04524176,-0.0888489,93.4377341581913
14.344,1500,-0.02874863,0.00275824,0.0591511,93.4377341581913
14.354,1500,0.01725137,0.01075824,0.0351511,93.4377341581913
14.364,1500,0.18725137,0.03675824,0.0411511,93.4377341581913
14.375,1500,-0.04674863,-0.02824176,0.0171511,93.4377341581913
14.385,1500,0.09925137,0.01975824,-0.0018489,93.4377341581913
14.395,1500,-0.03074863,-0.00624176,-0.0278489,93.4377341581913
14.405,1500,0.07225137,0.00375824,-0.0438489,93.4377341581913
14.415,1500,0.03425137,-0.00124176,-0.0138489,93.4377341581913
14.425,1500,-0.01574863,-0.02824176,-0.0628489,93.4377341581913
14.435,1500,0.01425137,-0.01924176,-0.0288489,93.4377341581913
14.445,1500,-0.10174863,-0.06724176,-0.0698489,93.4377341581913
14.455,1500,-0.01274863,-0.02124176,-0.0088489,93.4377341581913
14.465,1500,-0.01874863,-0.03524176,-0.0458489,93.4377341581913
14.475,1500,-0.01474863,-0.01724176,-0.0078489,93.4377341581913
14.484,1500,-0.04874863,-0.03624176,-0.0418489,93.4377341581913
14.494,1500,0.00225137,-0.01124176,-0.0028489,93.4377341581913
14.505,1500,-0.11874863,-0.03424176,0.0071511,93.4377341581913
14.515,1500,-0.06274863,0.00075824,-0.0038489,93.4377341581913
14.525,1500,0.04325137,0.00175824,0.0161511,93.4377341581913
14.535,1500,0.04025137,-0.01224176,0.0011511,93.4377341581913
14.545,1500,-0.00274863,-0.02224176,-0.0398489,93.4377341581913
14.555,1500,0.01025137,0.00275824,0.0191511,93.4377341581913
14.565,1500,0.01425137,-0.02724176,-0.0378489,93.4377341581913
14.574,1500,-0.03174863,-0.01224176,0.0001511,93.4377341581913
14.585,1500,-0.12074863,-0.01424176,0.0491511,93.4377341581913
14.595,1500,-0.01274863,-0.01824176,0.0061511,93.4377341581913
14.605,1500,0.00125137,0.02775824,0.0781511,93.4377341581913
14.615,1500,0.00625137,-0.00324176,0.0081511,93.4377341581913
14.625,1500,0.09725137,0.04475824,0.1021511,93.4377341581913
14.635,1500,-0.02474863,-0.00224176,-0.0138489,93.4377341581913
14.645,1500,-0.00674863,-0.03524176,-0.0098489,93.4377341581913
14.655,1500,-0.11974863,-0.02424176,-0.0048489,93.4377341581913
14.665,1500,-0.01674863,-0.02324176,-0.0128489,93.4377341581913
14.675,1500,-0.07574863,-0.02224176,-0.0078489,93.4377341581913
14.685,1500,-0.03474863,-0.00124176,0.0121511,49.338905524714
14.695,1500,-0.08474863,-0.03124176,0.0121511,49.338905524714
14.705,1500,0.00225137,-0.00624176,0.0041511,49.338905524714
14.715,1500,-0.08374863,-0.03024176,0.0141511,49.338905524714
14.724,1500,0.02425137,-0.00524176,0.0231511,49.338905524714
14.734,1500,0.08425137,-0.01224176,0.0221511,49.338905524714
14.745,1500,-0.00274863,-0.00224176,0.0401511,49.338905524714
14.755,1500,0.10025137,0.00075824,0.0001511,49.338905524714
14.765,1500,0.01325137,-0.02824176,-0.0138489,49.338905524714
14.775,1500,0.02925137,-0.01824176,-0.0078489,49.338905524714
14.785,1500,-0.02274863,-0.00524176,0.0111511,49.338905524714
14.796,1500,0.01125137,-0.01724176,-0.0008489,49.338905524714
14.805,1500,-0.03674863,0.00575824,0.0471511,49.338905524714
14.815,1500,0.12025137,0.02075824,0.0501511,49.338905524714
14.825,1500,-0.03774863,-0.04024176,-0.0048489,49.338905524714
14.835,1500,0.06825137,0.03275824,0.1501511,49.338905524714
14.844,1500,-0.01974863,-0.01824176,0.0361511,49.338905524714
14.854,1500,-0.00774863,-0.05124176,-0.0968489,49.338905524714
14.865,1500,0.02625137,-0.01024176,0.0011511,49.338905524714
14.875,1500,0.06725137,-0.06624176,-0.1098489,49.338905524714
14.885,1500,0.00025137,-0.01024176,0.0091511,49.338905524714
14.895,1500,-0.00374863,-0.03024176,-0.0548489,49.338905524714
14.905,1500,0.05525137,-0.02424176,0.0021511,49.338905524714
14.915,1500,-0.04274863,-0.00124176,0.0511511,49.338905524714
14.925,1500,-0.02274863,-0.01324176,0.0001511,49.338905524714
14.935,1500,0.03925137,-0.03324176,-0.0358489,49.338905524714
14.945,1500,0.04325137,0.00675824,-0.0068489,49.338905524714
14.955,1500,0.01625137,-0.04224176,-0.0688489,49.338905524714
14.965,1500,-0.03974863,0.00975824,0.0191511,49.338905524714
14.975,1500,0.04225137,-0.03324176,-0.0488489,49.338905524714
14.985,1500,-0.11074863,-0.07024176,-0.0078489,49.338905524714
14.995,1500,-0.02074863,0.01575824,0.0631511,49.338905524714
15.005,1500,-0.05374863,-0.05024176,-0.0108489,49.338905524714
15.014,1500,0.04625137,0.01775824,0.0811511,49.338905524714
15.024,1500,-0.10574863,-0.04024176,0.0301511,49.338905524714
15.034,1500,-0.03374863,0.00575824,0.0771511,49.338905524714
15.044,1500,-0.06474863,-0.04224176,0.0081511,49.338905524714
15.054,1500,-0.00974863,0.01375824,0.0611511,49.338905524714
15.064,1500,0.15125137,0.01975824,0.0081511,49.338905524714
15.074,1500,0.03325137,-0.01024176,0.0011511,49.338905524714
15.085,1500,0.07725137,0.00775824,-0.0138489,49.338905524714
15.095,1500,0.00825137,-0.05224176,-0.0778489,49.338905524714
15.105,1500,-0.01774863,-0.05824176,-0.1148489,49.338905524714
15.115,1500,0.09225137,-0.02224176,-0.0438489,49.338905524714
15.124,1500,-0.15174863,-0.08024176,-0.0928489,49.338905524714
15.135,1500,-0.02674863,-0.00824176,-0.0048489,49.338905524714
15.145,1500,0.00225137,-0.02624176,-0.0138489,49.338905524714
15.154,1500,0.01025137,-0.03324176,-0.0168489,49.338905524714
15.164,1500,-0.14374863,-0.03924176,0.0251511,49.338905524714
15.175,1500,0.01125137,0.00275824,0.0391511,49.338905524714
15.185,1500,-0.02774863,-0.02324176,0.0241511,49.338905524714
15.195,1500,-0.02474863,-0.00924176,0.0071511,49.338905524714
15.205,1500,-0.00174863,-0.06324176,-0.0898489,45.3698855408229
15.215,1500,0.01425137,-0.02124176,-0.0088489,45.3698855408229
15.225,1500,-0.00374863,-0.03124176,0.0241511,45.3698855408229
15.235,1500,-0.01774863,-0.02624176,0.0151511,45.3698855408229
15.245,1500,-0.06174863,-0.02224176,0.0021511,45.3698855408229
15.255,1500,-0.03174863,-0.03924176,-0.0128489,45.3698855408229
15.265,1500,0.03425137,0.02575824,0.0961511,45.3698855408229
15.275,1500,0.04625137,-0.02824176,-0.0378489,45.3698855408229
15.285,1500,0.15025137,0.02575824,0.0851511,45.3698855408229
15.295,1500,-0.04374863,-0.02824176,-0.0498489,45.3698855408229
15.305,1500,-0.02974863,-0.05424176,-0.0408489,45.3698855408229
15.314,1500,-0.08174863,0.00975824,-0.0088489,45.3698855408229
15.324,1500,-0.04874863,-0.04224176,-0.0608489,45.3698855408229
15.335,1500,-0.07074863,-0.02724176,-0.0068489,45.3698855408229
15.345,1500,-0.00974863,-0.03224176,-0.0338489,45.3698855408229
15.355,1500,-0.04074863,-0.02724176,0.0411511,45.3698855408229
15.365,1500,0.02725137,-0.00924176,0.0431511,45.3698855408229
15.375,1500,-0.18474863,-0.04524176,0.0241511,45.3698855408229
15.385,1500,-0.01374863,0.01075824,0.0911511,45.3698855408229
15.395,1500,0.06425137,0.01675824,0.0761511,45.3698855408229
15.405,1500,-0.04774863,-0.01524176,0.0151511,45.3698855408229
15.415,1500,0.06225137,0.01075824,0.0121511,45.3698855408229
15.425,1500,0.00425137,-0.02124176,-0.0078489,45.3698855408229
15.435,1500,-0.01874863,-0.02424176,-0.0238489,45.3698855408229
15.445,1500,0.00225137,-0.00524176,-0.0158489,45.3698855408229
15.455,1500,-0.03274863,-0.01524176,-0.0008489,45.3698855408229
15.465,1500,-0.00874863,-0.01924176,-0.0008489,45.3698855408229
15.474,1500,0.00825137,-0.00724176,0.0531511,45.3698855408229
15.485,1500,-0.01574863,-0.00724176,0.0061511,45.3698855408229
15.495,1500,0.05125137,0.00375824,0.0551511,45.3698855408229
15.505,1500,-0.09174863,-0.02724176,-0.0038489,45.3698855408229
15.515,1500,-0.02274863,0.01875824,0.0951511,45.3698855408229
15.524,1500,-0.02974863,0.00275824,0.0251511,45.3698855408229
15.535,1500,-0.02374863,-0.04724176,-0.1038489,45.3698855408229
15.545,1500,-0.00674863,-0.01224176,-0.0068489,45.3698855408229
15.555,1500,0.03325137,-0.04124176,-0.0918489,45.3698855408229
15.565,1500,-0.01574863,-0.01824176,-0.0168489,45.3698855408229
15.575,1500,-0.03974863,-0.03224176,-0.0648489,45.3698855408229
15.585,1500,-0.03674863,-0.02524176,0.0021511,45.3698855408229
15.596,1500,-0.05174863,-0.04824176,-0.0288489,45.3698855408229
15.605,1500,0.02925137,-0.00524176,0.0041511,45.3698855408229
15.615,1500,0.04325137,-0.01624176,0.0051511,45.3698855408229
15.625,1500,-0.02574863,-0.01024176,-0.0298489,45.3698855408229
15.635,1500,0.04725137,-0.03524176,-0.0638489,45.3698855408229
15.645,1500,-0.13974863,-0.03424176,-0.0318489,45.3698855408229
15.655,1500,0.04725137,-0.02424176,-0.0338489,45.3698855408229
15.665,1500,-0.09574863,-0.04524176,-0.0258489,45.3698855408229
15.675,1500,0.00025137,-0.00924176,-0.0058489,45.3698855408229
15.685,1500,0.00425137,-0.02024176,0.0181511,45.3698855408229
15.695,1500,0.04425137,0.00475824,0.0451511,45.3698855408229
15.705,1500,-0.14174863,-0.03824176,0.0171511,45.3698855408229
15.715,1500,-0.05874863,-0.01024176,0.0331511,45.3698855408229
15.725,1500,-0.00074863,-0.01424176,0.0391511,41.2458068925528
15.735,1500,0.01525137,-0.02724176,-0.0018489,41.2458068925528
15.745,1500,0.10825137,0.01775824,0.0211511,41.2458068925528
15.756,1500,0.02425137,-0.01524176,-0.0298489,41.2458068925528
15.766,1500,0.06725137,-0.03524176,-0.0878489,41.2458068925528
15.775,1500,-0.07274863,-0.03324176,-0.0618489,41.2458068925528
15.785,1500,-0.04474863,-0.03124176,-0.0948489,41.2458068925528
15.795,1500,-0.02774863,-0.00224176,-0.0178489,41.2458068925528
15.805,1500,-0.02174863,-0.01824176,-0.0148489,41.2458068925528
15.815,1500,0.04525137,0.00575824,0.0161511,41.2458068925528
15.824,1500,-0.02474863,0.00875824,0.0671511,41.2458068925528
15.835,1500,0.07025137,-0.02124176,-0.0318489,41.2458068925528
15.844,1500,0.03625137,-0.00224176,0.0261511,41.2458068925528
15.855,1500,-0.02374863,-0.02024176,-0.0148489,41.2458068925528
15.865,1500,0.05725137,-0.03724176,-0.0348489,41.2458068925528
15.875,1500,0.03125137,-0.00424176,0.0131511,41.2458068925528
15.885,1500,0.03325137,-0.03424176,-0.0698489,41.2458068925528
15.895,1500,-0.01674863,-0.00824176,-0.0178489,41.2458068925528
15.905,1500,0.00425137,0.01275824,0.0301511,41.2458068925528
15.914,1500,-0.04274863,-0.02824176,-0.0228489,41.2458068925528
15.925,1500,-0.04774863,0.01375824,0.0761511,41.2458068925528
15.935,1500,-0.00974863,-0.00924176,0.0201511,41.2458068925528
15.945,1500,0.07025137,0.02075824,-0.0058489,41.2458068925528
15.955,1500,-0.01574863,0.00675824,-0.0118489,41.2458068925528
15.965,1500,0.00725137,-0.03824176,-0.0568489,41.2458068925528
15.975,1500,0.02025137,0.01775824,-0.0138489,41.2458068925528
15.985,1500,-0.01574863,-0.04024176,-0.0598489,41.2458068925528
15.995,1500,-0.12774863,-0.02924176,-0.0378489,41.2458068925528
16.005,1500,0.00825137,-0.01124176,0.0021511,41.2458068925528
16.015,1500,-0.08574863,-0.01224176,0.0061511,41.2458068925528
16.025,1500,0.01825137,0.00275824,0.0001511,41.2458068925528
16.035,1500,-0.03074863,-0.01824176,0.0161511,41.2458068925528
16.045,1500,0.02625137,0.00375824,0.0461511,41.2458068925528
16.055,1500,-0.05274863,0.00075824,0.0261511,41.2458068925528
16.066,1500,-0.09174863,0.00875824,0.0451511,41.2458068925528
16.076,1500,0.11025137,-0.00724176,-0.0698489,41.2458068925528
16.086,1500,0.02425137,-0.01824176,-0.0478489,41.2458068925528
16.096,1500,0.05325137,-0.01324176,-0.0498489,41.2458068925528
16.106,1500,0.04525137,-0.02224176,-0.0558489,41.2458068925528
16.116,1500,0.07725137,-0.02124176,-0.0518489,41.2458068925528
16.125,1500,-0.02374863,-0.03824176,-0.0568489,41.2458068925528
16.135,1500,0.01225137,-0.03824176,-0.0708489,41.2458068925528
16.145,1500,-0.00674863,-0.02124176,-0.0248489,41.2458068925528
16.155,1500,0.00725137,-0.01624176,0.0281511,41.2458068925528
16.165,1500,-0.00574863,-0.02924176,0.0071511,41.2458068925528
16.175,1500,0.00225137,-0.01224176,-0.0138489,41.2458068925528
16.185,1500,0.02125137,-0.03024176,-0.0078489,41.2458068925528
16.196,1500,-0.00374863,-0.04324176,0.0141511,41.2458068925528
16.206,1500,-0.02474863,-0.02924176,-0.0098489,41.2458068925528
16.216,1500,0.03425137,-0.06624176,-0.0358489,41.2458068925528
16.225,1500,-0.13874863,-0.07924176,0.0151511,41.2458068925528
16.235,1500,0.01725137,-0.03424176,0.0471511,41.2458068925528
16.245,1500,-0.04174863,-0.09624176,-0.0518489,41.2458068925528
16.255,1500,0.04325137,-0.04224176,0.0401511,56.2899720160436
16.265,1500,-0.04774863,-0.09624176,-0.0538489,56.2899720160436
16.275,1500,-0.00674863,-0.05824176,0.0201511,56.2899720160436
16.285,1500,-0.03774863,-0.06524176,0.0151511,56.2899720160436
16.295,1500,0.01325137,-0.06724176,-0.0458489,56.2899720160436
16.305,1500,-0.08974863,-0.08024176,0.0191511,56.2899720160436
16.316,1500,-0.11374863,-0.02924176,0.0421511,56.2899720160436
16.326,1500,-0.13374863,-0.02524176,0.0661511,56.2899720160436
16.336,1500,0.08525137,-0.02124176,0.0391511,56.2899720160436
16.345,1500,0.04125137,-0.05224176,-0.0328489,56.2899720160436
16.355,1500,-0.07574863,0.02175824,0.0051511,56.2899720160436
16.365,1500,0.02025137,0.01475824,0.0291511,56.2899720160436
16.375,1500,-0.02274863,-0.03124176,0.0041511,56.2899720160436
16.385,1500,0.04025137,0.02475824,0.0411511,56.2899720160436
16.395,1500,0.01525137,0.02375824,0.0021511,56.2899720160436
16.405,1500,-0.05774863,0.01375824,-0.0008489,56.2899720160436
16.416,1500,0.04225137,0.02875824,-0.0118489,56.2899720160436
16.426,1500,0.02625137,0.01575824,0.0181511,56.2899720160436
16.435,1500,0.04525137,0.01175824,0.0511511,56.2899720160436
16.445,1500,-0.03974863,0.00275824,-0.0128489,56.2899720160436
16.455,1500,-0.01974863,0.01375824,-0.0038489,56.2899720160436
16.465,1500,0.00025137,0.01975824,-0.0008489,56.2899720160436
16.475,1500,0.02625137,0.01075824,0.0111511,56.2899720160436
16.485,1500,0.03425137,0.01275824,0.0261511,56.2899720160436
16.495,1500,0.00725137,0.01675824,0.0211511,56.2899720160436
16.505,1500,-0.04974863,-0.01624176,0.0241511,56.2899720160436
16.516,1500,0.00525137,-0.00424176,0.0301511,56.2899720160436
16.526,1500,0.02125137,-0.00424176,0.0081511,56.2899720160436
16.536,1500,-0.00974863,-0.01124176,0.0191511,56.2899720160436
16.546,1500,0.04925137,0.02575824,0.0141511,56.2899720160436
16.556,1500,0.02425137,0.02575824,0.0461511,56.2899720160436
16.565,1500,-0.00974863,-0.02724176,0.0131511,56.2899720160436
16.575,1500,0.03525137,0.00075824,-0.0058489,56.2899720160436
16.585,1500,0.02325137,0.01775824,-0.0058489,56.2899720160436
16.595,1500,-0.07274863,-0.01724176,-0.0028489,56.2899720160436
16.605,1500,-0.06474863,0.00775824,0.0031511,56.2899720160436
16.616,1500,-0.05274863,0.01275824,0.0071511,56.2899720160436
16.626,1500,0.00425137,-0.01924176,-0.0068489,56.2899720160436
16.636,1500,0.07625137,0.04075824,0.0791511,56.2899720160436
16.646,1500,0.02625137,0.02175824,0.0001511,56.2899720160436
16.655,1500,0.04725137,0.00275824,0.0041511,56.2899720160436
16.665,1500,-0.02174863,0.01675824,-0.0068489,56.2899720160436
16.675,1500,-0.01474863,0.01575824,-0.0028489,56.2899720160436
16.685,1500,-0.05774863,-0.00324176,0.0071511,56.2899720160436
16.695,1500,-0.04274863,0.02575824,-0.0028489,56.2899720160436
16.705,1500,-0.02074863,0.01575824,0.0011511,56.2899720160436
16.716,1500,-0.06374863,-0.00224176,-0.0138489,56.2899720160436
16.726,1500,-0.13074863,0.01275824,0.0161511,56.2899720160436
16.736,1500,-0.04074863,0.00675824,0.0171511,56.2899720160436
16.746,1500,-0.01574863,-0.02424176,-0.0168489,56.2899720160436
16.756,1500,0.07025137,0.01375824,0.0411511,56.2899720160436
16.765,1500,0.04425137,-0.00424176,0.0071511,56.2899720160436
16.775,1500,-0.05874863,0.00675824,0.0021511,133.370140644123
16.785,1500,-0.02074863,-0.00024176,0.0051511,133.370140644123
16.795,1500,0.08925137,0.00775824,0.0531511,133.370140644123
16.805,1500,0.06725137,-0.01124176,-0.0108489,133.370140644123
16.815,1500,-0.03974863,-0.00324176,0.0211511,133.370140644123
16.825,1500,0.02525137,0.00575824,0.0221511,133.370140644123
16.836,1500,-0.09774863,0.00575824,-0.0148489,133.370140644123
16.845,1500,-0.01674863,0.00275824,0.0191511,133.370140644123
16.855,1500,0.05425137,-0.00724176,0.0171511,133.370140644123
16.865,1500,0.05125137,0.03075824,-0.0048489,133.370140644123
16.875,1500,0.00925137,0.03075824,0.0231511,133.370140644123
16.885,1500,0.00125137,0.01975824,0.0001511,133.370140644123
16.895,1500,-0.06474863,0.03275824,-0.0198489,133.370140644123
16.905,1500,-0.04374863,0.01275824,-0.0058489,133.370140644123
16.915,1500,0.04125137,0.00075824,0.0151511,133.370140644123
16.925,1500,0.09225137,0.01475824,-0.0108489,133.370140644123
16.936,1500,0.00625137,0.00675824,-0.0068489,133.370140644123
16.945,1500,-0.05774863,-0.00824176,-0.0008489,133.370140644123
16.955,1500,0.01425137,0.01175824,0.0141511,133.370140644123
16.965,1500,-0.02974863,-0.03724176,-0.0058489,133.370140644123
16.975,1500,0.01225137,-0.04324176,0.0141511,133.370140644123
16.985,1500,0.02225137,-0.04424176,-0.0088489,133.370140644123
16.995,1500,0.02125137,-0.03624176,0.0131511,133.370140644123
17.006,1500,-0.06074863,-0.06524176,-0.0088489,133.370140644123
17.015,1500,-0.06374863,-0.04124176,-0.0068489,133.370140644123
17.025,1500,-0.04874863,-0.02824176,-0.0168489,133.370140644123
17.036,1500,-0.01574863,-0.02924176,-0.0048489,133.370140644123
17.046,1500,0.05525137,0.00075824,-0.0078489,133.370140644123
17.056,1500,-0.04874863,-0.00724176,-0.0168489,133.370140644123
17.066,1500,0.15525137,0.06475824,0.0351511,133.370140644123
17.076,1500,0.01725137,0.02875824,-0.0338489,133.370140644123
17.086,1500,0.01325137,-0.00924176,0.0001511,133.370140644123
17.096,1500,0.05525137,-0.01624176,0.0041511,133.370140644123
17.106,1500,0.03025137,-0.01124176,0.0091511,133.370140644123
17.116,1500,0.01725137,-0.00724176,-0.0028489,133.370140644123
17.125,1500,0.02125137,0.00075824,-0.0008489,133.370140644123
17.136,1500,0.02225137,-0.02324176,0.0141511,133.370140644123
17.145,1500,0.02025137,-0.01524176,0.0021511,133.370140644123
17.155,1500,0.04825137,0.02375824,-0.0048489,133.370140644123
17.165,1500,-0.02874863,0.00975824,-0.0028489,133.370140644123
17.175,1500,-0.00874863,-0.01424176,-0.0058489,133.370140644123
17.186,1500,-0.01174863,0.01775824,-0.0128489,133.370140644123
17.196,1500,-0.06674863,-0.00824176,0.0211511,133.370140644123
17.206,1500,-0.01474863,0.03175824,0.0281511,133.370140644123
17.215,1500,-0.02074863,0.04075824,0.0151511,133.370140644123
17.225,1500,0.03125137,-0.02424176,-0.0068489,133.370140644123
17.235,1500,-0.00874863,-0.03624176,-0.1108489,133.370140644123
17.245,1500,0.02425137,0.02275824,0.0051511,133.370140644123
17.256,1500,-0.01074863,-0.01424176,0.0041511,133.370140644123
17.265,1500,-0.06174863,0.01175824,0.0361511,133.370140644123
17.276,1500,-0.04274863,0.03075824,0.0621511,133.370140644123
17.285,1500,-0.01574863,0.00875824,-0.0008489,133.370140644123
17.295,1500,0.01325137,0.00475824,-0.0408489,139.737531224406
17.305,1500,0.01525137,0.01175824,0.0631511,139.737531224406
17.315,1500,0.00725137,0.01075824,0.0181511,139.737531224406
17.325,1500,-0.03074863,0.02775824,-0.0228489,139.737531224406
17.335,1500,0.03225137,0.01675824,-0.0138489,139.737531224406
17.346,1500,-0.04374863,0.02075824,0.0091511,139.737531224406
17.356,1500,-0.00974863,0.01375824,-0.0078489,139.737531224406
17.366,1500,0.04925137,0.01675824,0.0211511,139.737531224406
17.376,1500,-0.06274863,-0.02824176,-0.0918489,139.737531224406
17.385,1500,0.01625137,0.01375824,0.0061511,139.737531224406
17.395,1500,0.01025137,-0.00524176,-0.0158489,139.737531224406
17.406,1500,-0.04274863,0.01375824,0.0171511,139.737531224406
17.415,1500,-0.00174863,0.00775824,0.0071511,139.737531224406
17.425,1500,-0.02174863,-0.01324176,0.0091511,139.737531224406
17.436,1500,-0.03774863,0.02475824,0.0271511,139.737531224406
17.446,1500,-0.19074863,-0.03024176,-0.0448489,139.737531224406
17.455,1500,0.01925137,0.02875824,0.0311511,139.737531224406
17.466,1500,0.02125137,0.01975824,-0.0048489,139.737531224406
17.475,1500,-0.01274863,-0.01224176,-0.0208489,139.737531224406
17.485,1500,0.01525137,-0.00824176,0.0021511,139.737531224406
17.496,1500,0.00825137,0.05075824,0.0111511,139.737531224406
17.505,1500,-0.04574863,0.00875824,-0.0188489,139.737531224406
17.516,1500,0.07125137,0.02275824,0.0001511,139.737531224406
17.525,1500,0.02825137,0.02275824,0.0191511,139.737531224406
17.536,1500,-0.04174863,-0.02624176,0.0211511,139.737531224406
17.545,1500,0.00525137,0.01375824,-0.0108489,139.737531224406
17.555,1500,-0.00174863,-0.00624176,-0.0648489,139.737531224406
17.566,1500,-0.03174863,-0.01524176,0.0021511,139.737531224406
17.575,1500,-0.04374863,-0.00024176,-0.0108489,139.737531224406
17.586,1500,-0.03274863,-0.00224176,0.0151511,139.737531224406
17.595,1500,-0.05174863,-0.02324176,-0.0168489,139.737531224406
17.606,1500,0.03525137,0.01975824,0.0071511,139.737531224406
17.615,1500,0.01625137,0.00675824,0.0041511,139.737531224406
17.626,1500,-0.03574863,0.01275824,-0.0038489,139.737531224406
17.636,1500,0.02925137,0.00675824,0.0041511,139.737531224406
17.646,1500,0.01825137,-0.01424176,0.0111511,139.737531224406
17.657,1500,0.00525137,0.00675824,-0.0028489,139.737531224406
17.666,1500,-0.00474863,0.02875824,0.0611511,139.737531224406
17.676,1500,0.00025137,0.00375824,0.0341511,139.737531224406
17.686,1500,0.01725137,-0.01924176,0.0171511,139.737531224406
17.696,1500,-0.09274863,-0.05524176,0.0391511,139.737531224406
17.706,1500,-0.00874863,-0.02824176,0.0501511,139.737531224406
17.716,1500,-0.01574863,-0.05424176,0.0011511,139.737531224406
17.725,1500,0.13025137,-0.04224176,-0.1048489,139.737531224406
17.735,1500,-0.00574863,-0.07824176,-0.0888489,139.737531224406
17.746,1500,-0.22474863,-0.10124176,-0.0528489,139.737531224406
17.756,1500,-0.00474863,0.02475824,0.0741511,139.737531224406
17.766,1500,0.20325137,0.07075824,0.1071511,139.737531224406
17.776,1500,0.07525137,-0.00524176,-0.0218489,139.737531224406
17.786,1500,-0.06674863,0.01675824,-0.0468489,139.737531224406
17.795,1500,-0.01574863,0.02175824,0.0421511,139.737531224406
17.805,1500,0.00525137,-0.00324176,0.0401511,139.737531224406
17.816,1500,-0.03774863,0.00775824,-0.0548489,152.030691150622
17.826,1500,0.12725137,0.09675824,0.0471511,152.030691150622
17.836,1500,0.17225137,0.00775824,-0.0298489,152.030691150622
17.846,1500,-0.05574863,-0.02824176,-0.0118489,152.030691150622
17.856,1500,0.03525137,0.04275824,0.0771511,152.030691150622
17.866,1500,0.04225137,-0.01024176,0.0531511,152.030691150622
17.876,1500,0.13425137,0.01375824,0.0071511,152.030691150622
17.886,1500,-0.01874863,0.01775824,0.0541511,152.030691150622
17.896,1500,-0.08574863,0.00375824,0.0291511,152.030691150622
17.906,1500,-0.10274863,0.01675824,0.0391511,152.030691150622
17.916,1500,0.12225137,0.00175824,0.1761511,152.030691150622
17.925,1500,0.02125137,0.06075824,0.2181511,152.030691150622
17.936,1500,0.02925137,0.08175824,0.1671511,152.030691150622
17.945,1500,-0.26774863,-0.04424176,0.0151511,152.030691150622
17.956,1500,0.11425137,0.03875824,0.0491511,152.030691150622
17.966,1500,-0.10974863,-0.02824176,-0.1038489,152.030691150622
17.976,1500,-0.09874863,-0.02124176,-0.1618489,152.030691150622
17.986,1500,-0.04274863,0.00075824,-0.1748489,152.030691150622
17.995,1500,-0.01474863,-0.01924176,-0.1148489,152.030691150622
18.006,1500,-0.12774863,-0.03624176,-0.1988489,152.030691150622
18.016,1500,0.03125137,-0.02624176,-0.1728489,152.030691150622
18.025,1500,0.20025137,0.01375824,-0.0368489,152.030691150622
18.036,1500,-0.02174863,-0.05724176,-0.0218489,152.030691150622
18.046,1500,0.03725137,-0.00124176,-0.0608489,152.030691150622
18.055,1500,0.05225137,0.03975824,-0.0188489,152.030691150622
18.066,1500,0.23225137,0.09175824,-0.0128489,152.030691150622
18.076,1500,0.09625137,0.05075824,0.1161511,152.030691150622
18.085,1500,-0.00574863,0.02175824,0.1761511,152.030691150622
18.096,1500,0.09625137,0.18275824,0.2371511,152.030691150622
18.105,1500,0.26925137,0.00875824,0.0551511,152.030691150622
18.116,1500,-0.08274863,-0.03224176,-0.0238489,152.030691150622
18.126,1500,0.05925137,0.09075824,0.1611511,152.030691150622
18.135,1500,-0.16874863,-0.09124176,0.0351511,152.030691150622
18.146,1500,0.03125137,0.00875824,0.0771511,152.030691150622
18.156,1500,-0.07474863,0.01875824,-0.0288489,152.030691150622
18.165,1500,-0.11574863,-0.02024176,-0.0408489,152.030691150622
18.176,1500,-0.16274863,-0.00624176,-0.0608489,152.030691150622
18.186,1500,-0.04874863,-0.00324176,0.0231511,152.030691150622
18.195,1500,-0.05074863,-0.00324176,0.0531511,152.030691150622
18.206,1500,-0.09374863,-0.01324176,-0.0178489,152.030691150622
18.216,1500,-0.18474863,-0.06024176,-0.0028489,152.030691150622
18.226,1500,-0.06274863,0.02575824,-0.0308489,152.030691150622
18.236,1500,-0.00974863,-0.03824176,-0.2108489,152.030691150622
18.245,1500,-0.04074863,-0.09524176,-0.3828489,152.030691150622
18.256,1500,0.17325137,0.03875824,-0.2358489,152.030691150622
18.266,1500,-0.07274863,-0.02824176,-0.2678489,152.030691150622
18.275,1500,-0.00074863,-0.03124176,-0.2028489,152.030691150622
18.286,1500,0.15225137,0.06375824,0.0481511,152.030691150622
18.296,1500,0.19325137,-0.00624176,-0.0848489,152.030691150622
18.306,1500,0.02925137,0.04375824,0.1141511,152.030691150622
18.316,1500,-0.04474863,0.06575824,0.1661511,152.030691150622
18.326,1500,0.01425137,0.03275824,0.1131511,152.030691150622
18.336,1500,0.19225137,0.10575824,0.1341511,156.373054255112
18.346,1500,0.07125137,0.10975824,0.0961511,156.373054255112
18.355,1500,0.00825137,0.04275824,-0.1878489,156.373054255112
18.366,1500,0.22725137,0.10075824,0.0131511,156.373054255112
18.376,1500,0.11925137,0.15375824,0.0901511,156.373054255112
18.385,1500,0.15625137,0.17375824,-0.0508489,156.373054255112
18.396,1500,0.10525137,0.11475824,-0.0728489,156.373054255112
18.406,1500,0.13725137,0.12875824,-0.0238489,156.373054255112
18.415,1500,0.06525137,0.10075824,-0.0418489,156.373054255112
18.426,1500,0.08425137,0.11675824,-0.0018489,156.373054255112
18.436,1500,0.06425137,0.10075824,-0.0038489,156.373054255112
18.445,1500,0.01925137,0.08175824,-0.0138489,156.373054255112
18.456,1500,0.03125137,0.06175824,-0.0128489,156.373054255112
18.466,1500,0.04125137,0.04775824,-0.0028489,156.373054255112
18.476,1500,0.01125137,0.02475824,0.0001511,156.373054255112
18.486,1500,0.01025137,0.02375824,-0.0068489,156.373054255112
18.496,1500,0.01925137,0.02175824,-0.0018489,156.373054255112
18.507,1500,-0.01174863,0.00475824,-0.0118489,156.373054255112
18.516,1500,-0.00474863,0.00975824,0.0031511,156.373054255112
18.526,1500,0.00825137,0.00675824,-0.0018489,156.373054255112
18.536,1500,0.01525137,0.00575824,-0.0048489,156.373054255112
18.546,1500,0.00625137,0.00275824,0.0011511,156.373054255112
18.556,1500,0.01225137,0.00775824,-0.0008489,156.373054255112
18.566,1500,-0.00274863,0.00475824,-0.0008489,156.373054255112
18.576,1500,0.00225137,0.00075824,0.0011511,156.373054255112
18.585,1500,0.00525137,0.00775824,-0.0068489,156.373054255112
18.596,1500,0.00225137,0.00975824,-0.0058489,156.373054255112
18.606,1500,-0.00374863,-0.00224176,-0.0018489,156.373054255112
18.616,1500,0.00325137,0.00275824,0.0031511,156.373054255112
18.626,1500,0.00125137,0.00875824,-0.0048489,156.373054255112
18.636,1500,0.00625137,0.00175824,-0.0018489,156.373054255112
18.646,1500,0.00625137,-0.00024176,-0.0038489,156.373054255112
18.656,1500,0.00725137,0.01175824,0.0031511,156.373054255112
18.666,1500,-0.00174863,0.00375824,-0.0018489,156.373054255112
18.676,1500,-0.00374863,0.00075824,0.0021511,156.373054255112
18.686,1500,-0.00374863,0.00275824,0.0011511,156.373054255112
18.697,1500,0.00025137,0.00875824,-0.0008489,156.373054255112
18.707,1500,0.00525137,0.00475824,0.0001511,156.373054255112
18.716,1500,0.00225137,0.00175824,-0.0008489,156.373054255112
18.726,1500,-0.00174863,0.00275824,-0.0038489,156.373054255112
18.736,1500,-0.00274863,0.00075824,-0.0018489,156.373054255112
18.746,1500,0.00125137,0.00375824,-0.0078489,156.373054255112
18.756,1500,0.00625137,0.00775824,-0.0028489,156.373054255112
18.767,1500,0.00625137,0.00575824,0.0001511,156.373054255112
18.776,1500,0.00325137,0.00175824,-0.0038489,156.373054255112
18.786,1500,-0.00074863,0.00175824,0.0021511,156.373054255112
18.796,1500,0.00125137,0.00675824,0.0001511,156.373054255112
18.806,1500,-0.00074863,0.00175824,0.0001511,156.373054255112
18.816,1500,0.00425137,0.00175824,-0.0018489,156.373054255112
18.826,1500,-0.00074863,0.00975824,0.0011511,156.373054255112
18.836,1500,-0.00074863,0.00175824,0.0031511,156.373054255112
18.846,1500,0.00125137,0.00075824,-0.0008489,156.373054255112
18.856,1500,0.00025137,0.00475824,-0.0048489,3.09587733841423
18.866,1500,0.00625137,0.00375824,-0.0008489,3.09587733841423
18.876,1500,0.00525137,0.00075824,0.0021511,3.09587733841423
18.887,1500,0.00925137,0.00575824,0.0001511,3.09587733841423
18.897,1500,0.00225137,0.00475824,-0.0058489,3.09587733841423
18.907,1500,-0.00174863,0.00075824,0.0001511,3.09587733841423
18.917,1500,-0.00674863,0.00575824,0.0011511,3.09587733841423
18.927,1500,-0.00074863,0.00775824,0.0011511,3.09587733841423
18.937,1500,-0.00274863,0.00275824,-0.0058489,3.09587733841423
18.947,1500,-0.00074863,0.00175824,-0.0008489,3.09587733841423
18.957,1500,-0.00174863,0.00275824,-0.0068489,3.09587733841423
18.966,1500,0.00125137,0.00375824,-0.0008489,3.09587733841423
18.976,1500,0.00625137,0.00575824,0.0091511,3.09587733841423
18.986,1500,0.00725137,0.00575824,0.0011511,3.09587733841423
18.996,1500,0.00125137,0.00275824,0.0041511,3.09587733841423
19.006,1500,0.00025137,0.00275824,-0.0038489,3.09587733841423
19.016,1500,0.00025137,0.00075824,0.0011511,3.09587733841423
19.026,1500,-0.00274863,0.00675824,-0.0058489,3.09587733841423
19.037,1500,-0.00174863,0.00075824,-0.0018489,3.09587733841423
19.046,1500,0.00025137,0.00275824,0.0031511,3.09587733841423
19.056,1500,0.00125137,0.00275824,-0.0048489,3.09587733841423
19.067,1500,0.00325137,0.00175824,-0.0018489,3.09587733841423
19.077,1500,0.00325137,0.00575824,-0.0018489,3.09587733841423
19.087,1500,0.00225137,0.00575824,-0.0028489,3.09587733841423
19.097,1500,0.00825137,0.00375824,-0.0028489,3.09587733841423
19.107,1500,0.00625137,-0.00124176,0.0011511,3.09587733841423
19.117,1500,0.00425137,0.00675824,-0.0038489,3.09587733841423
19.127,1500,-0.00274863,0.00575824,0.0001511,3.09587733841423
19.136,1500,-0.00074863,-0.00024176,-0.0008489,3.09587733841423
19.147,1500,-0.00174863,0.00275824,-0.0018489,3.09587733841423
19.156,1500,0.00025137,0.00975824,-0.0048489,3.09587733841423
19.166,1500,0.00025137,0.00175824,0.0011511,3.09587733841423
19.176,1500,0.00525137,0.00275824,-0.0068489,3.09587733841423
19.186,1500,0.00325137,0.00375824,0.0031511,3.09587733841423
19.196,1500,0.00225137,0.00175824,-0.0058489,3.09587733841423
19.206,1500,0.01025137,0.00375824,-0.0018489,3.09587733841423
19.217,1500,0.00325137,0.00275824,0.0011511,3.09587733841423
19.226,1500,-0.00474863,0.00575824,0.0041511,3.09587733841423
19.236,1500,-0.00074863,0.00075824,-0.0008489,3.09587733841423
19.246,1500,-0.00174863,-0.00024176,0.0041511,3.09587733841423
19.256,1500,-0.00274863,0.00275824,-0.0028489,3.09587733841423
19.267,1500,-0.00374863,0.00375824,-0.0078489,3.09587733841423
19.276,1500,-0.00674863,0.00175824,-0.0018489,3.09587733841423
19.286,1500,0.00225137,0.00075824,0.0001511,3.09587733841423
19.297,1500,0.00225137,0.00275824,-0.0008489,3.09587733841423
19.306,1500,0.00025137,0.00575824,-0.0068489,3.09587733841423
19.316,1500,0.00225137,0.00175824,-0.0038489,3.09587733841423
19.327,1500,0.00825137,0.00475824,0.0011511,3.09587733841423
19.336,1500,0.00425137,0.00575824,0.0011511,3.09587733841423
19.346,1500,0.00625137,0.00375824,-0.0058489,3.09587733841423
19.357,1500,-0.00174863,0.00275824,-0.0008489,3.09587733841423
19.366,1500,0.00125137,0.00075824,0.0051511,3.09587733841423
19.376,1500,-0.00774863,0.00575824,0.0011511,0
19.387,1500,-0.00174863,0.00675824,-0.0018489,0
19.396,1500,0.00025137,0.00275824,0.0001511,0
19.406,1500,-0.00374863,-0.00124176,0.0041511,0
19.416,1500,-0.00074863,0.00475824,0.0011511,0
19.427,1500,0.00425137,0.00875824,-0.0018489,0
19.436,1500,0.00425137,0.00675824,0.0001511,0
19.446,1500,0.01225137,-0.00224176,0.0031511,0
19.456,1500,0.00825137,0.00375824,-0.0028489,0
19.466,1500,0.00525137,0.00775824,-0.0018489,0
19.476,1500,0.00325137,-0.00024176,0.0041511,0
19.487,1500,-0.00374863,0.00175824,0.0011511,0
19.496,1500,-0.00374863,0.00575824,-0.0008489,0
19.506,1500,-0.00674863,0.00175824,0.0001511,0
19.517,1500,-0.00174863,0.00675824,-0.0008489,0
19.526,1500,0.00325137,0.00075824,0.0021511,0
19.536,1500,0.00325137,-0.00024176,0.0011511,0
19.546,1500,0.00325137,0.00875824,-0.0028489,0
19.557,1500,0.00825137,0.00375824,-0.0058489,0
19.566,1500,0.01025137,0.00275824,-0.0018489,0
19.576,1500,0.00525137,0.00575824,0.0011511,0
19.587,1500,0.00725137,0.00675824,0.0071511,0
19.596,1500,0.01025137,0.00375824,-0.0048489,0
19.606,1500,0.00625137,0.00175824,0.0021511,0
19.617,1500,-0.00974863,0.00375824,0.0021511,0
19.626,1500,-0.01174863,0.00475824,0.0001511,0
19.636,1500,0.00025137,-0.00024176,0.0031511,0
19.647,1500,-0.00174863,0.00375824,-0.0038489,0
19.656,1500,0.01525137,0.00675824,-0.0008489,0
19.666,1500,-0.00074863,0.00475824,-0.0098489,0
19.677,1500,0.00725137,-0.00224176,0.0071511,0
19.686,1500,0.00625137,0.00275824,-0.0028489,0
19.696,1500,0.00525137,0.00375824,0.0001511,0
19.707,1500,0.00125137,0.00275824,-0.0018489,0
19.716,1500,0.00225137,0.00275824,0.0031511,0
19.727,1500,-0.00274863,0.00675824,-0.0018489,0
19.737,1500,-0.00274863,0.00575824,-0.0058489,0
19.746,1500,-0.00174863,0.00075824,0.0061511,0
19.757,1500,-0.00074863,0.00275824,-0.0008489,0
19.767,1500,-0.00074863,0.00175824,-0.0018489,0
19.776,1500,0.00325137,0.00075824,-0.0038489,0
19.787,1500,0.00625137,0.00475824,-0.0088489,0
19.797,1500,0.01025137,-0.00124176,-0.0018489,0
19.806,1500,0.00025137,0.00375824,-0.0078489,0
19.817,1500,0.00025137,0.00975824,-0.0048489,0
19.827,1500,0.00025137,0.00275824,-0.0008489,0
19.836,1500,0.00125137,0.00275824,-0.0008489,0
19.847,1500,-0.00074863,0.00175824,-0.0018489,0
19.856,1500,-0.00274863,0.00575824,0.0011511,0
19.866,1500,-0.00174863,0.00275824,0.0041511,0
19.877,1500,-0.00274863,0.00475824,0.0011511,0
19.886,1500,0.00025137,0.00075824,-0.0078489,0
19.896,1500,0.00425137,0.00575824,-0.0018489,0
19.907,1500,0.00425137,0.00275824,-0.0008489,0
19.916,1500,0.01025137,0.00175824,-0.0038489,0
19.927,1500,0.00025137,0.01175824,0.0011511,0
19.937,1500,0.00425137,0.00475824,0.0011511,0
19.946,1500,0.00725137,-0.00524176,0.0001511,0
19.957,1500,0.00325137,0.00875824,-0.0018489,0
19.967,1500,0.00325137,0.00575824,-0.0008489,0
19.976,1500,-0.00474863,-0.00024176,-0.0018489,0
19.987,1500,-0.00174863,0.00275824,-0.0008489,0
19.997,1500,0.00325137,0.00775824,-0.0038489,0
20.006,1500,0.00325137,0.00275824,-0.0018489,0
20.017,1500,0.00425137,0.00275824,0.0021511,0
20.027,1500,0.00025137,0.00675824,-0.0048489,0
20.036,1500,0.01025137,0.00075824,-0.0018489,0
20.047,1500,0.00425137,0.00275824,-0.0008489,0
20.057,1500,0.00525137,0.00275824,0.0001511,0
20.066,1500,-0.00174863,0.00175824,-0.0068489,0
20.077,1500,-0.00074863,0.00275824,-0.0008489,0
20.087,1500,-0.00274863,0.00075824,0.0001511,0
20.097,1500,0.00225137,0.00275824,0.0011511,0
20.106,1500,-0.00374863,0.00175824,0.0001511,0
20.117,1500,0.00225137,-0.00324176,0.0021511,0
20.127,1500,0.00125137,0.00475824,-0.0018489,0
20.136,1500,0.00725137,0.00175824,-0.0008489,0
20.147,1500,0.00425137,0.00575824,-0.0048489,0
20.156,1500,-0.00274863,0.00575824,-0.0068489,0
20.167,1500,0.00825137,0.00675824,-0.0038489,0
20.177,1500,0.00225137,-0.00124176,-0.0058489,0
20.186,1500,0.00725137,0.00575824,-0.0038489,0
20.197,1500,-0.00174863,0.00775824,-0.0048489,0
20.207,1500,0.00025137,-0.00124176,0.0001511,0
20.216,1500,0.00125137,-0.00224176,0.0021511,0
20.226,1500,-0.00174863,0.00775824,-0.0048489,0
20.237,1500,-0.00074863,0.00275824,0.0011511,0
20.247,1500,-0.00274863,0.00175824,0.0031511,0
20.256,1500,-0.00074863,0.00975824,-0.0058489,0
20.267,1500,0.00925137,0.00275824,0.0021511,0
20.277,1500,-0.00074863,0.00175824,-0.0068489,0
20.286,1500,0.00725137,0.00075824,-0.0038489,0
20.297,1500,0.00325137,0.00375824,-0.0038489,0
20.307,1500,0.00225137,0.00375824,0.0011511,0
20.316,1500,0.00025137,0.00075824,0.0041511,0
20.327,1500,0.00125137,0.00375824,0.0001511,0
20.337,1500,0.00225137,0.00275824,0.0041511,0
20.346,1500,-0.00374863,0.00075824,0.0001511,0
20.357,1500,0.00125137,0.00475824,-0.0018489,0
20.366,1500,0.00025137,0.00675824,-0.0038489,0
20.377,1500,0.00025137,0.00175824,-0.0008489,0
20.387,1500,0.00225137,0.00175824,-0.0018489,0
20.397,1500,0.00325137,0.00475824,0.0071511,0
20.406,1500,0.01425137,0.00375824,0.0001511,0
20.417,1500,-0.00474863,0.00575824,0.0021511,0
20.426,1500,0.00325137,0.00375824,0.0021511,0
20.437,1500,-0.00174863,-0.00024176,-0.0008489,0
20.447,1500,0.00025137,0.00075824,-0.0058489,0
20.457,1500,-0.00674863,0.00575824,0.0001511,0
20.466,1500,-0.00274863,0.00675824,-0.0058489,0
20.477,1500,0.00325137,0.00375824,0.0051511,0
20.487,1500,0.00525137,0.00475824,-0.0058489,0
20.496,1500,0.00425137,0.00675824,-0.0038489,0
20.507,1500,0.00725137,0.00375824,-0.0038489,0
20.517,1500,0.00625137,0.00075824,-0.0008489,0
20.526,1500,0.00625137,0.00275824,0.0001511,0
20.537,1500,0.00125137,0.00475824,0.0031511,0
20.547,1500,0.00025137,0.00275824,0.0071511,0
20.557,1500,-0.00074863,0.00075824,0.0021511,0
20.567,1500,-0.00174863,0.00275824,0.0011511,0
20.577,1500,-0.00374863,0.00475824,0.0021511,0
20.587,1500,-0.00574863,0.00175824,0.0031511,0
20.597,1500,0.00025137,0.00575824,-0.0028489,0
20.607,1500,0.00025137,0.00475824,0.0011511,0
20.617,1500,0.00325137,0.00475824,0.0011511,0
20.627,1500,0.00225137,0.00075824,0.0001511,0
20.637,1500,0.00525137,0.00175824,-0.0038489,0
20.647,1500,0.00425137,0.00175824,-0.0018489,0
20.657,1500,0.00525137,-0.00124176,0.0051511,0
20.667,1500,0.00325137,0.00475824,-0.0008489,0
20.677,1500,0.00125137,0.00475824,-0.0028489,0
20.687,1500,0.00125137,-0.00024176,-0.0068489,0
20.696,1500,-0.00274863,0.00575824,0.0041511,0
20.707,1500,0.00225137,0.00175824,0.0011511,0
20.717,1500,0.00025137,0.00075824,-0.0038489,0
20.727,1500,0.00425137,0.00575824,-0.0058489,0
20.737,1500,0.00925137,0.00575824,-0.0038489,0
20.747,1500,0.01025137,0.00575824,0.0061511,0
20.757,1500,0.00325137,0.00275824,0.0021511,0
20.767,1500,0.00425137,0.00875824,-0.0028489,0
20.777,1500,0.00225137,0.00175824,0.0021511,0
20.787,1500,-0.00274863,-0.00224176,0.0001511,0
20.796,1500,0.00225137,0.00375824,0.0021511,0
20.807,1500,0.00025137,0.00675824,-0.0048489,0
20.817,1500,0.00025137,0.00175824,-0.0018489,0
20.827,1500,0.00125137,0.00375824,0.0031511,0
20.837,1500,0.00325137,0.00375824,-0.0058489,0
