Time,Speed,accX,accY,accZ,velocity_magnitude
0.073,1500,0.02325137,0.00275824,0.0021511,0
0.087,1500,0.02425137,0.00475824,-0.0028489,0
0.097,1500,0.02525137,0.00375824,0.0021511,0
0.108,1500,0.02225137,0.00575824,-0.0008489,0
0.118,1500,0.01925137,0.00975824,-0.0008489,0
0.128,1500,0.02225137,0.00575824,0.0041511,0
0.137,1500,0.02125137,0.00375824,0.0011511,0
0.147,1500,0.02025137,0.00775824,0.0011511,0
0.157,1500,0.02425137,0.00375824,0.0011511,0
0.167,1500,0.02425137,0.00575824,0.0101511,0
0.177,1500,0.02125137,0.00675824,-0.0018489,0
0.187,1500,0.02425137,0.00875824,-0.0038489,0
0.198,1500,0.02225137,-0.00024176,0.0011511,0
0.208,1500,0.02125137,0.00075824,0.0011511,0
0.218,1500,0.02025137,0.00675824,-0.0028489,0
0.228,1500,0.02025137,0.00575824,-0.0038489,0
0.237,1500,0.02525137,0.00175824,-0.0028489,0
0.247,1500,0.02325137,0.00475824,-0.0008489,0
0.257,1500,0.02225137,0.00875824,-0.0018489,0
0.267,1500,0.01925137,0.00675824,-0.0028489,0
0.277,1500,0.02525137,0.00675824,0.0011511,0
0.287,1500,0.02325137,0.00275824,-0.0038489,0
0.298,1500,0.02225137,0.00475824,-0.0048489,0
0.307,1500,0.01925137,0.00475824,0.0031511,0
0.317,1500,0.02425137,0.00675824,0.0041511,0
0.327,1500,0.02525137,0.00275824,0.0021511,0
0.337,1500,0.01925137,0.00275824,-0.0068489,0
0.347,1500,0.02225137,0.00675824,-0.0088489,0
0.357,1500,0.02425137,0.00575824,-0.0058489,0
0.368,1500,0.02425137,0.00275824,-0.0018489,0
0.378,1500,0.02225137,0.00475824,-0.0058489,0
0.387,1500,0.02525137,0.01175824,-0.0008489,0
0.397,1500,0.01925137,0.00375824,0.0021511,0
0.408,1500,0.02325137,0.00275824,0.0021511,0
0.418,1500,0.02125137,0.00975824,-0.0008489,0
0.428,1500,0.02425137,0.00275824,0.0001511,0
0.438,1500,0.01825137,0.00475824,-0.0008489,0
0.448,1500,0.02425137,0.00975824,0.0011511,0
0.458,1500,0.02325137,0.00275824,0.0001511,0
0.467,1500,0.02325137,0.00675824,0.0011511,0
0.477,1500,0.02025137,0.00675824,-0.0048489,0
0.487,1500,0.02225137,0.00875824,0.0001511,0
0.497,1500,0.02425137,0.00875824,0.0001511,0
0.508,1500,0.02325137,0.00675824,-0.0038489,0
0.517,1500,0.02325137,0.00575824,0.0021511,0
0.527,1500,0.02325137,0.00475824,0.0021511,0
0.538,1500,0.02325137,0.00375824,0.0031511,0
0.547,1500,0.02325137,0.00475824,0.0001511,0
0.557,1500,0.02425137,0.00375824,0.0021511,0
0.567,1500,0.02125137,0.00075824,0.0011511,0
0.577,1500,0.01825137,0.00975824,-0.0038489,0
0.587,1500,0.02525137,0.00475824,-0.0018489,0
0.597,1500,0.02525137,0.00875824,-0.0038489,0
0.608,1500,0.02225137,0.00875824,-0.0068489,0
0.617,1500,0.02125137,0.00675824,-0.0038489,0
0.628,1500,0.02325137,0.00575824,-0.0048489,0
0.637,1500,0.02325137,0.00175824,0.0001511,0
0.647,1500,0.02225137,0.00075824,0.0041511,0
0.658,1500,0.02225137,0.00175824,0.0011511,0
0.668,1500,0.02225137,0.00375824,0.0011511,0
0.678,1500,0.01925137,0.00875824,0.0001511,0
0.688,1500,0.02425137,0.00475824,0.0001511,0
0.698,1500,0.02325137,0.00375824,-0.0028489,0
0.708,1500,0.02425137,0.00575824,-0.0028489,0
0.718,1500,0.02025137,0.00375824,-0.0048489,0
0.727,1500,0.02525137,0.00375824,-0.0008489,0
0.737,1500,0.02325137,0.00475824,0.0011511,0
0.747,1500,0.02325137,0.00575824,0.0031511,0
0.757,1500,0.02625137,0.00775824,0.0011511,0
0.768,1500,0.01825137,0.00475824,0.0021511,0
0.777,1500,0.02225137,0.00475824,0.0001511,0
0.788,1500,0.02425137,0.00975824,0.0021511,0
0.797,1500,0.01825137,0.00375824,-0.0038489,0
0.808,1500,0.02225137,0.00675824,-0.0008489,0
0.817,1500,0.02325137,0.00775824,-0.0028489,0
0.827,1500,0.01925137,0.01375824,-0.0048489,0
0.837,1500,0.01825137,0.01975824,-0.0088489,0
0.847,1500,0.06525137,0.06875824,-0.0158489,0
0.858,1500,0.11525137,0.12475824,-0.0348489,0
0.868,1500,0.09025137,0.12475824,-0.0178489,0
0.878,1500,0.15025137,0.13575824,-0.0018489,0
0.888,1500,0.23625137,0.15475824,-0.0098489,0
0.898,1500,0.16725137,0.17675824,-0.0108489,0
0.908,1500,0.12825137,0.17275824,-0.0028489,0
0.917,1500,0.13225137,0.19175824,-0.0258489,0
0.927,1500,0.11825137,0.17175824,0.0031511,0
0.938,1500,0.12025137,0.11175824,0.0101511,0
0.947,1500,0.07325137,0.08175824,0.0111511,0
0.957,1500,0.06625137,0.07575824,-0.0278489,0
0.967,1500,0.08125137,0.06175824,0.0581511,0
0.977,1500,-0.00174863,0.08175824,-0.0598489,0
0.988,1500,-0.02874863,0.03675824,0.0111511,0
0.997,1500,-0.02674863,-0.01224176,0.0051511,0
1.008,1500,0.09725137,-0.03324176,0.0421511,0
1.017,1500,0.02725137,0.04275824,0.0041511,0
1.028,1500,-0.00574863,0.06775824,-0.0058489,0
1.037,1500,0.03725137,0.01275824,0.0281511,0
1.047,1500,0.00725137,-0.04324176,-0.0088489,0
1.058,1500,-0.00674863,-0.00024176,0.0211511,0
1.067,1500,-0.00674863,0.05675824,0.0161511,0
1.078,1500,-0.01474863,0.04675824,-0.0178489,0
1.087,1500,0.03125137,-0.05324176,-0.0278489,0
1.098,1500,0.08225137,-0.01024176,-0.0028489,0
1.108,1500,0.02825137,0.07975824,0.0231511,0
1.117,1500,-0.04374863,-0.03124176,-0.0308489,0
1.128,1500,-0.02274863,0.00475824,-0.0028489,0
1.137,1500,-0.02574863,0.01475824,0.0511511,0
1.148,1500,-0.05974863,0.00175824,0.0191511,0
1.157,1500,-0.04774863,-0.01124176,0.0251511,0
1.168,1500,-0.11974863,0.01575824,-0.0028489,0
1.178,1500,0.08025137,0.03875824,-0.0718489,0
1.187,1500,0.12325137,-0.02724176,0.0331511,143.309716786883
1.199,1500,0.04225137,-0.02824176,0.0351511,143.309716786883
1.208,1500,-0.04874863,0.09175824,-0.0158489,143.309716786883
1.218,1500,-0.12774863,0.09275824,-0.0588489,143.309716786883
1.228,1500,-0.09874863,-0.02324176,0.0111511,143.309716786883
1.238,1500,0.05925137,-0.07324176,0.0261511,143.309716786883
1.248,1500,-0.07374863,-0.02224176,-0.0238489,143.309716786883
1.258,1500,-0.00374863,0.06975824,-0.0698489,143.309716786883
1.268,1500,-0.04874863,0.03775824,-0.0458489,143.309716786883
1.278,1500,0.00425137,-0.05424176,-0.0288489,143.309716786883
1.288,1500,0.02625137,-0.01924176,0.0131511,143.309716786883
1.298,1500,-0.02774863,0.00975824,0.0081511,143.309716786883
1.309,1500,-0.04174863,0.03775824,-0.0378489,143.309716786883
1.318,1500,-0.03574863,-0.05024176,-0.0238489,143.309716786883
1.328,1500,-0.02974863,-0.04824176,-0.0238489,143.309716786883
1.338,1500,-0.07074863,-0.06424176,-0.0218489,143.309716786883
1.347,1500,-0.04974863,-0.06424176,-0.0018489,143.309716786883
1.358,1500,-0.07674863,-0.09324176,-0.0478489,143.309716786883
1.368,1500,0.02325137,-0.15224176,-0.0068489,143.309716786883
1.377,1500,-0.04074863,-0.19024176,0.0341511,143.309716786883
1.388,1500,-0.07674863,-0.16224176,0.0121511,143.309716786883
1.397,1500,-0.08574863,-0.18924176,0.0341511,143.309716786883
1.408,1500,-0.06974863,-0.15424176,-0.0168489,143.309716786883
1.418,1500,-0.11874863,-0.13024176,-0.0268489,143.309716786883
1.428,1500,-0.05774863,-0.12924176,-0.0268489,143.309716786883
1.438,1500,0.00625137,-0.10224176,-0.0028489,143.309716786883
1.447,1500,-0.03674863,-0.06324176,0.0061511,143.309716786883
1.458,1500,-0.04474863,-0.06524176,0.0061511,143.309716786883
1.467,1500,-0.02774863,-0.06924176,0.0041511,143.309716786883
1.478,1500,-0.01274863,-0.04524176,0.0021511,143.309716786883
1.488,1500,0.00625137,-0.00824176,0.0071511,143.309716786883
1.498,1500,-0.00674863,-0.00724176,0.0081511,143.309716786883
1.508,1500,0.00225137,-0.01724176,0.0041511,143.309716786883
1.518,1500,0.00925137,-0.00924176,-0.0088489,143.309716786883
1.528,1500,-0.01074863,0.00375824,-0.0128489,143.309716786883
1.538,1500,0.01425137,0.00175824,0.0031511,143.309716786883
1.548,1500,0.02125137,0.00675824,0.0061511,143.309716786883
1.558,1500,0.02525137,0.03475824,-0.0038489,143.309716786883
1.568,1500,0.02525137,0.06975824,0.0221511,143.309716786883
1.578,1500,0.03625137,0.08875824,0.0181511,143.309716786883
1.589,1500,0.05725137,0.10175824,-0.0138489,143.309716786883
1.598,1500,0.08525137,0.11975824,-0.0148489,143.309716786883
1.609,1500,0.11325137,0.13475824,-0.0258489,143.309716786883
1.618,1500,0.13825137,0.15075824,-0.0138489,143.309716786883
1.629,1500,0.04625137,0.12975824,-0.0648489,143.309716786883
1.637,1500,0.10825137,0.14675824,0.0321511,143.309716786883
1.648,1500,0.16525137,0.11975824,-0.0508489,143.309716786883
1.658,1500,0.07725137,0.05575824,-0.1028489,143.309716786883
1.667,1500,0.06825137,0.11175824,0.0951511,143.309716786883
1.678,1500,-0.00474863,0.05075824,-0.0678489,143.309716786883
1.688,1500,0.03825137,0.05075824,-0.0108489,143.309716786883
1.698,1500,0.02525137,0.08375824,0.0521511,143.309716786883
1.708,1500,-0.07874863,0.00575824,-0.0188489,143.309716786883
1.718,1500,-0.03874863,0.00975824,0.0151511,98.2381154635257
1.728,1500,-0.05074863,-0.01124176,-0.0228489,98.2381154635257
1.738,1500,-0.11574863,-0.01824176,-0.0018489,98.2381154635257
1.747,1500,-0.15774863,-0.04424176,0.0341511,98.2381154635257
1.757,1500,0.00525137,0.06375824,0.0951511,98.2381154635257
1.768,1500,-0.05474863,0.00175824,-0.0808489,98.2381154635257
1.778,1500,-0.14774863,-0.06224176,-0.0428489,98.2381154635257
1.788,1500,-0.20974863,-0.00824176,-0.0398489,98.2381154635257
1.798,1500,-0.05674863,0.00975824,-0.1008489,98.2381154635257
1.808,1500,-0.00974863,-0.02824176,-0.1718489,98.2381154635257
1.818,1500,0.01625137,-0.00724176,-0.0698489,98.2381154635257
1.828,1500,-0.04874863,-0.02324176,-0.0388489,98.2381154635257
1.837,1500,-0.00574863,-0.04324176,-0.0488489,98.2381154635257
1.848,1500,0.00325137,0.05675824,0.0511511,98.2381154635257
1.858,1500,0.05625137,0.03075824,-0.1038489,98.2381154635257
1.867,1500,-0.10774863,-0.00724176,-0.0798489,98.2381154635257
1.878,1500,0.01525137,0.00075824,-0.0758489,98.2381154635257
1.888,1500,0.01525137,0.00875824,-0.0708489,98.2381154635257
1.898,1500,0.21525137,0.04875824,-0.0298489,98.2381154635257
1.908,1500,-0.00574863,-0.03124176,-0.0398489,98.2381154635257
1.918,1500,0.07125137,-0.00324176,0.0571511,98.2381154635257
1.928,1500,0.03625137,0.04175824,0.1391511,98.2381154635257
1.938,1500,0.10725137,0.02875824,0.0761511,98.2381154635257
1.947,1500,-0.04274863,-0.00324176,-0.0048489,98.2381154635257
1.958,1500,-0.04474863,-0.00124176,0.0571511,98.2381154635257
1.968,1500,-0.03374863,0.03975824,0.0881511,98.2381154635257
1.977,1500,0.00425137,-0.02924176,0.0481511,98.2381154635257
1.988,1500,0.02825137,0.00775824,0.0171511,98.2381154635257
1.998,1500,-0.04974863,0.01175824,0.0401511,98.2381154635257
2.008,1500,0.08625137,0.02575824,0.1381511,98.2381154635257
2.018,1500,0.20525137,0.04475824,0.0911511,98.2381154635257
2.028,1500,-0.04474863,0.02075824,0.0191511,98.2381154635257
2.038,1500,0.04525137,0.03875824,0.1441511,98.2381154635257
2.048,1500,-0.14674863,-0.02824176,0.0251511,98.2381154635257
2.057,1500,-0.23174863,-0.02824176,-0.0058489,98.2381154635257
2.068,1500,-0.09874863,-0.01324176,-0.0388489,98.2381154635257
2.078,1500,0.10825137,0.05675824,0.0731511,98.2381154635257
2.088,1500,-0.08374863,-0.07424176,-0.1208489,98.2381154635257
2.099,1500,-0.14174863,0.00475824,0.0041511,98.2381154635257
2.108,1500,-0.05274863,-0.03424176,-0.1378489,98.2381154635257
2.118,1500,-0.06574863,0.01475824,-0.1338489,98.2381154635257
2.128,1500,-0.03774863,-0.00924176,-0.0618489,98.2381154635257
2.138,1500,-0.04274863,-0.02724176,-0.0508489,98.2381154635257
2.148,1500,0.01925137,-0.00224176,-0.0878489,98.2381154635257
2.158,1500,-0.00374863,0.01775824,-0.0858489,98.2381154635257
2.167,1500,0.06325137,0.01275824,-0.0768489,98.2381154635257
2.178,1500,-0.09374863,-0.03124176,-0.0408489,98.2381154635257
2.188,1500,-0.00774863,-0.01124176,-0.0028489,98.2381154635257
2.198,1500,0.02125137,0.03875824,0.0741511,98.2381154635257
2.208,1500,0.11925137,0.00875824,0.1181511,98.2381154635257
2.218,1500,-0.03174863,-0.01324176,0.0831511,98.2381154635257
2.228,1500,0.00425137,-0.03624176,0.0461511,98.2381154635257
2.238,1500,-0.12674863,-0.12624176,-0.0978489,151.604113565769
2.248,1500,-0.06874863,-0.05824176,-0.0048489,151.604113565769
2.258,1500,-0.04274863,-0.11324176,-0.0008489,151.604113565769
2.268,1500,-0.14174863,-0.16824176,-0.0078489,151.604113565769
2.278,1500,-0.02874863,-0.16824176,-0.0038489,151.604113565769
2.289,1500,-0.08174863,-0.15324176,-0.0018489,151.604113565769
2.299,1500,-0.11474863,-0.11724176,-0.0288489,151.604113565769
2.309,1500,-0.03974863,-0.10824176,-0.0088489,151.604113565769
2.319,1500,-0.03174863,-0.10324176,0.0041511,151.604113565769
2.329,1500,-0.01374863,-0.08624176,0.0051511,151.604113565769
2.339,1500,-0.01874863,-0.05324176,0.0041511,151.604113565769
2.349,1500,-0.00974863,-0.02924176,-0.0028489,151.604113565769
2.359,1500,-0.01174863,-0.02724176,-0.0038489,151.604113565769
2.369,1500,-0.00674863,-0.01624176,-0.0018489,151.604113565769
2.379,1500,-0.01074863,-0.00424176,-0.0008489,151.604113565769
2.388,1500,-0.01074863,-0.01124176,0.0011511,151.604113565769
2.398,1500,-0.00174863,-0.00624176,-0.0048489,151.604113565769
2.408,1500,-0.00274863,0.00175824,0.0001511,151.604113565769
2.418,1500,-0.00274863,0.00975824,-0.0008489,151.604113565769
2.428,1500,0.01325137,0.01375824,-0.0008489,151.604113565769
2.438,1500,0.02525137,0.03175824,-0.0068489,151.604113565769
2.448,1500,0.02925137,0.05575824,-0.0098489,151.604113565769
2.458,1500,0.04125137,0.07175824,-0.0008489,151.604113565769
2.468,1500,0.04625137,0.08075824,-0.0078489,151.604113565769
2.478,1500,0.04925137,0.10075824,-0.0108489,151.604113565769
2.489,1500,0.06025137,0.12175824,-0.0088489,151.604113565769
2.498,1500,0.09725137,0.12675824,-0.0058489,151.604113565769
2.508,1500,0.07825137,0.12175824,-0.0048489,151.604113565769
2.518,1500,0.08525137,0.12075824,-0.0158489,151.604113565769
2.528,1500,0.06325137,0.08975824,-0.0168489,151.604113565769
2.539,1500,0.02625137,0.07375824,-0.0058489,151.604113565769
2.548,1500,0.05125137,0.07675824,0.0101511,151.604113565769
2.558,1500,0.06125137,0.07075824,0.0311511,151.604113565769
2.568,1500,0.00925137,0.05075824,0.0041511,151.604113565769
2.578,1500,0.00625137,0.04875824,0.0081511,151.604113565769
2.589,1500,-0.05574863,0.02275824,-0.0108489,151.604113565769
2.598,1500,-0.01374863,-0.00124176,-0.0328489,151.604113565769
2.608,1500,-0.02574863,-0.01124176,-0.0088489,151.604113565769
2.618,1500,0.01725137,0.03575824,0.0291511,151.604113565769
2.628,1500,-0.03274863,0.00775824,0.0231511,151.604113565769
2.638,1500,0.01825137,0.01875824,0.0371511,151.604113565769
2.648,1500,0.02525137,0.01875824,-0.0258489,151.604113565769
2.658,1500,-0.07274863,-0.02624176,-0.0248489,151.604113565769
2.668,1500,0.03225137,0.01375824,-0.0048489,151.604113565769
2.678,1500,0.01025137,0.00075824,-0.0328489,151.604113565769
2.688,1500,-0.01274863,0.00675824,0.0141511,151.604113565769
2.698,1500,-0.02174863,0.01175824,-0.0158489,151.604113565769
2.708,1500,-0.03774863,-0.02124176,0.0411511,151.604113565769
2.718,1500,0.02725137,0.00175824,0.0191511,151.604113565769
2.729,1500,-0.01974863,0.01375824,-0.0178489,151.604113565769
2.739,1500,-0.02374863,-0.00624176,-0.0188489,151.604113565769
2.749,1500,0.00025137,0.03275824,-0.0268489,151.604113565769
2.759,1500,-0.02974863,0.02775824,0.0001511,91.2941632075957
2.769,1500,-0.01674863,-0.00624176,-0.0078489,91.2941632075957
2.779,1500,-0.01874863,0.00675824,-0.0308489,91.2941632075957
2.789,1500,0.00525137,-0.01424176,-0.0038489,91.2941632075957
2.799,1500,-0.03874863,0.02475824,0.0041511,91.2941632075957
2.809,1500,-0.07374863,0.04775824,-0.0218489,91.2941632075957
2.819,1500,-0.02974863,-0.01724176,-0.0618489,91.2941632075957
2.829,1500,-0.02974863,-0.01224176,-0.0488489,91.2941632075957
2.838,1500,0.00825137,0.02375824,0.0051511,91.2941632075957
2.848,1500,-0.04274863,-0.00924176,0.0011511,91.2941632075957
2.858,1500,0.06425137,0.02975824,-0.0308489,91.2941632075957
2.868,1500,0.07525137,0.01975824,-0.0508489,91.2941632075957
2.878,1500,0.00725137,0.01175824,0.0071511,91.2941632075957
2.889,1500,0.03725137,0.00875824,-0.0338489,91.2941632075957
2.899,1500,0.01325137,0.02675824,0.0381511,91.2941632075957
2.909,1500,-0.00074863,-0.00624176,0.0041511,91.2941632075957
2.919,1500,0.01325137,0.01475824,-0.0048489,91.2941632075957
2.929,1500,-0.01574863,0.02275824,0.0051511,91.2941632075957
2.939,1500,0.01125137,-0.01024176,-0.0298489,91.2941632075957
2.949,1500,0.04325137,-0.02024176,-0.0328489,91.2941632075957
2.959,1500,0.04425137,0.01275824,0.0171511,91.2941632075957
2.969,1500,-0.03674863,-0.01224176,0.0181511,91.2941632075957
2.979,1500,0.04425137,0.04675824,0.0271511,91.2941632075957
2.989,1500,-0.02974863,-0.00424176,-0.0238489,91.2941632075957
2.999,1500,0.00525137,-0.01624176,0.0221511,91.2941632075957
3.008,1500,0.00525137,0.01275824,-0.0098489,91.2941632075957
3.018,1500,0.02225137,-0.01924176,-0.0028489,91.2941632075957
3.028,1500,0.01025137,0.02575824,0.0011511,91.2941632075957
3.038,1500,0.01125137,0.03875824,-0.0038489,91.2941632075957
3.049,1500,0.00625137,0.01275824,0.0391511,91.2941632075957
3.059,1500,0.00925137,0.04575824,0.0171511,91.2941632075957
3.069,1500,0.00625137,-0.02124176,-0.0028489,91.2941632075957
3.078,1500,0.04925137,-0.01024176,0.0071511,91.2941632075957
3.088,1500,0.05525137,0.03475824,-0.0288489,91.2941632075957
3.099,1500,-0.01374863,-0.02724176,-0.0358489,91.2941632075957
3.108,1500,-0.02074863,0.03075824,0.0041511,91.2941632075957
3.118,1500,0.01325137,0.00875824,0.0311511,91.2941632075957
3.129,1500,-0.01574863,-0.05924176,0.0171511,91.2941632075957
3.138,1500,0.03025137,0.01375824,0.0171511,91.2941632075957
3.148,1500,-0.06274863,-0.00224176,0.0041511,91.2941632075957
3.159,1500,-0.01374863,0.00975824,0.0241511,91.2941632075957
3.169,1500,-0.04374863,0.00575824,0.0231511,91.2941632075957
3.178,1500,-0.03174863,-0.04224176,-0.0038489,91.2941632075957
3.188,1500,-0.02474863,-0.06624176,0.0021511,91.2941632075957
3.199,1500,-0.01374863,-0.07524176,0.0081511,91.2941632075957
3.208,1500,-0.05274863,-0.09524176,0.0111511,91.2941632075957
3.218,1500,-0.05174863,-0.12524176,0.0181511,91.2941632075957
3.229,1500,-0.08774863,-0.15324176,0.0121511,91.2941632075957
3.238,1500,-0.08174863,-0.14524176,0.0071511,91.2941632075957
3.249,1500,-0.05774863,-0.11024176,0.0161511,91.2941632075957
3.259,1500,-0.04874863,-0.10124176,0.0081511,91.2941632075957
3.268,1500,-0.02774863,-0.07424176,-0.0058489,91.2941632075957
3.279,1500,-0.03874863,-0.07224176,-0.0008489,111.569054357428
3.289,1500,-0.03074863,-0.07524176,0.0051511,111.569054357428
3.298,1500,-0.00274863,-0.04324176,-0.0028489,111.569054357428
3.309,1500,-0.01674863,-0.01424176,-0.0098489,111.569054357428
3.318,1500,-0.02274863,-0.00124176,0.0041511,111.569054357428
3.328,1500,-0.01374863,-0.00524176,-0.0058489,111.569054357428
3.339,1500,-0.01574863,-0.01324176,-0.0068489,111.569054357428
3.348,1500,-0.01574863,-0.00624176,0.0011511,111.569054357428
3.358,1500,-0.00774863,-0.00124176,-0.0068489,111.569054357428
3.369,1500,-0.00174863,0.00275824,-0.0088489,111.569054357428
3.378,1500,0.00725137,0.01275824,0.0001511,111.569054357428
3.389,1500,0.01425137,0.01575824,0.0041511,111.569054357428
3.398,1500,0.02525137,0.03375824,0.0081511,111.569054357428
3.408,1500,0.01325137,0.05475824,-0.0018489,111.569054357428
3.419,1500,0.02825137,0.06575824,-0.0048489,111.569054357428
3.428,1500,0.08525137,0.08875824,-0.0018489,111.569054357428
3.438,1500,0.06525137,0.09175824,-0.0058489,111.569054357428
3.449,1500,0.05825137,0.10375824,-0.0048489,111.569054357428
3.458,1500,0.08825137,0.10575824,-0.0018489,111.569054357428
3.468,1500,0.04525137,0.11475824,-0.0098489,111.569054357428
3.479,1500,0.09625137,0.13375824,0.0121511,111.569054357428
3.488,1500,0.00625137,0.05675824,-0.0558489,111.569054357428
3.499,1500,0.06625137,0.05475824,0.0041511,111.569054357428
3.509,1500,0.05125137,0.04775824,0.0011511,111.569054357428
3.518,1500,0.00525137,0.01875824,-0.0038489,111.569054357428
3.529,1500,0.02225137,0.03175824,-0.0018489,111.569054357428
3.539,1500,-0.02474863,0.01375824,-0.0258489,111.569054357428
3.548,1500,-0.05574863,0.00975824,0.0211511,111.569054357428
3.559,1500,-0.02274863,-0.01324176,0.0131511,111.569054357428
3.569,1500,-0.05974863,0.00775824,-0.0148489,111.569054357428
3.578,1500,0.01725137,0.05475824,-0.0108489,111.569054357428
3.589,1500,0.03325137,0.03075824,0.0051511,111.569054357428
3.598,1500,0.08225137,0.02475824,0.0131511,111.569054357428
3.608,1500,-0.04974863,0.01775824,0.0191511,111.569054357428
3.619,1500,-0.09774863,-0.00724176,-0.0178489,111.569054357428
3.628,1500,-0.04374863,0.00875824,-0.0338489,111.569054357428
3.638,1500,-0.06774863,0.00575824,-0.0608489,111.569054357428
3.649,1500,-0.00974863,0.02775824,0.0281511,111.569054357428
3.658,1500,0.04825137,0.01175824,-0.0038489,111.569054357428
3.669,1500,-0.01074863,-0.00024176,-0.0048489,111.569054357428
3.679,1500,-0.13074863,-0.03824176,-0.0878489,111.569054357428
3.688,1500,-0.04974863,0.02275824,0.0001511,111.569054357428
3.699,1500,0.06825137,-0.00224176,-0.0168489,111.569054357428
3.709,1500,0.02525137,-0.01724176,0.0041511,111.569054357428
3.718,1500,-0.04874863,-0.00624176,-0.0498489,111.569054357428
3.729,1500,-0.09274863,0.00275824,-0.0038489,111.569054357428
3.739,1500,-0.11274863,-0.01024176,-0.0038489,111.569054357428
3.748,1500,0.08125137,0.02875824,-0.0118489,111.569054357428
3.759,1500,0.00525137,0.02075824,0.0361511,111.569054357428
3.769,1500,-0.01874863,-0.00224176,0.0151511,111.569054357428
3.778,1500,-0.04874863,0.02275824,0.0001511,111.569054357428
3.789,1500,-0.01974863,0.02375824,-0.0138489,111.569054357428
3.798,1500,-0.05774863,-0.00424176,-0.0268489,98.1411940738218
3.809,1500,-0.00374863,0.03575824,-0.0078489,98.1411940738218
3.819,1500,-0.05474863,0.01375824,0.0051511,98.1411940738218
3.828,1500,-0.13874863,-0.06024176,0.0121511,98.1411940738218
3.839,1500,0.01825137,0.00975824,0.0101511,98.1411940738218
3.849,1500,-0.06674863,0.01375824,-0.0108489,98.1411940738218
3.858,1500,-0.02674863,-0.00124176,-0.0028489,98.1411940738218
3.869,1500,-0.01474863,-0.00524176,-0.0378489,98.1411940738218
3.879,1500,0.06625137,0.00875824,0.0001511,98.1411940738218
3.888,1500,-0.04174863,-0.01824176,0.0041511,98.1411940738218
3.899,1500,-0.06874863,0.00375824,0.0031511,98.1411940738218
3.909,1500,0.02925137,0.01975824,0.0001511,98.1411940738218
3.918,1500,0.03225137,0.00475824,-0.0208489,98.1411940738218
3.929,1500,0.04525137,0.01975824,0.0111511,98.1411940738218
3.939,1500,-0.03174863,-0.00124176,-0.0348489,98.1411940738218
3.948,1500,-0.07474863,-0.00524176,-0.0508489,98.1411940738218
3.959,1500,0.01325137,0.01775824,0.0021511,98.1411940738218
3.968,1500,-0.00274863,-0.00224176,-0.0058489,98.1411940738218
3.979,1500,-0.03574863,-0.00724176,-0.0308489,98.1411940738218
3.989,1500,-0.00474863,0.03675824,-0.0058489,98.1411940738218
3.998,1500,-0.02974863,0.00375824,-0.0238489,98.1411940738218
4.009,1500,-0.06574863,0.00275824,0.0041511,98.1411940738218
4.019,1500,0.04425137,0.02875824,0.0701511,98.1411940738218
4.029,1500,0.01225137,0.01075824,-0.0078489,98.1411940738218
4.039,1500,-0.01174863,0.01375824,-0.0138489,98.1411940738218
4.049,1500,-0.02974863,0.02775824,-0.0038489,98.1411940738218
4.058,1500,0.05025137,0.01075824,-0.0338489,98.1411940738218
4.069,1500,0.04925137,-0.01524176,-0.0168489,98.1411940738218
4.079,1500,-0.02674863,0.01075824,-0.0088489,98.1411940738218
4.089,1500,0.01325137,0.01075824,-0.0028489,98.1411940738218
4.099,1500,0.01825137,0.00175824,0.0131511,98.1411940738218
4.108,1500,-0.04274863,0.01075824,-0.0268489,98.1411940738218
4.119,1500,-0.03174863,0.02275824,0.0041511,98.1411940738218
4.129,1500,0.04225137,-0.01924176,-0.0398489,98.1411940738218
4.138,1500,-0.06074863,0.00075824,-0.0708489,98.1411940738218
4.149,1500,-0.00974863,0.01975824,0.0321511,98.1411940738218
4.159,1500,0.00125137,-0.00924176,0.0451511,98.1411940738218
4.168,1500,0.06425137,0.02975824,0.0091511,98.1411940738218
4.179,1500,-0.01574863,-0.04324176,-0.0538489,98.1411940738218
4.189,1500,-0.04974863,-0.05224176,0.0021511,98.1411940738218
4.199,1500,-0.03874863,-0.07324176,0.0171511,98.1411940738218
4.209,1500,-0.07174863,-0.09824176,0.0041511,98.1411940738218
4.218,1500,-0.13274863,-0.12124176,-0.0628489,98.1411940738218
4.229,1500,-0.02474863,-0.09924176,0.0191511,98.1411940738218
4.239,1500,-0.04574863,-0.13024176,0.0061511,98.1411940738218
4.248,1500,-0.00274863,-0.11424176,0.0041511,98.1411940738218
4.259,1500,-0.02974863,-0.12124176,-0.0008489,98.1411940738218
4.269,1500,-0.02774863,-0.07424176,-0.0028489,98.1411940738218
4.279,1500,-0.02674863,-0.05524176,0.0021511,98.1411940738218
4.289,1500,-0.03074863,-0.05324176,0.0051511,98.1411940738218
4.299,1500,-0.01574863,-0.03724176,-0.0068489,98.1411940738218
4.309,1500,-0.03074863,-0.03724176,0.0041511,98.1411940738218
4.319,1500,-0.02074863,-0.01724176,0.0051511,88.4488048830527
4.328,1500,-0.01974863,-0.00924176,-0.0048489,88.4488048830527
4.339,1500,-0.01474863,-0.01024176,0.0021511,88.4488048830527
4.349,1500,-0.00574863,0.00775824,-0.0048489,88.4488048830527
4.358,1500,0.00125137,-0.00824176,0.0001511,88.4488048830527
4.369,1500,0.01225137,-0.00724176,0.0001511,88.4488048830527
4.379,1500,0.00025137,0.00675824,0.0011511,88.4488048830527
4.389,1500,0.00225137,0.00775824,-0.0008489,88.4488048830527
4.399,1500,0.00425137,0.00475824,-0.0018489,88.4488048830527
4.408,1500,-0.00074863,0.01375824,-0.0018489,88.4488048830527
4.419,1500,-0.01274863,0.01375824,-0.0038489,88.4488048830527
4.429,1500,-0.00574863,0.01375824,0.0071511,88.4488048830527
4.438,1500,0.01725137,0.02275824,0.0011511,88.4488048830527
4.449,1500,0.00025137,0.01575824,-0.0108489,88.4488048830527
4.459,1500,0.02525137,0.01875824,0.0001511,88.4488048830527
4.468,1500,0.02225137,0.02275824,0.0081511,88.4488048830527
4.479,1500,-0.01574863,0.02175824,0.0001511,88.4488048830527
4.489,1500,0.00425137,0.02575824,-0.0088489,88.4488048830527
4.499,1500,0.03525137,0.02175824,-0.0298489,88.4488048830527
4.509,1500,0.00425137,0.01275824,-0.0388489,88.4488048830527
4.519,1500,-0.04974863,0.01275824,-0.0108489,88.4488048830527
4.529,1500,0.14525137,0.02875824,0.0131511,88.4488048830527
4.539,1500,0.02025137,-0.00024176,-0.0198489,88.4488048830527
4.549,1500,0.01525137,0.02475824,0.0041511,88.4488048830527
4.559,1500,-0.06574863,0.00375824,0.0031511,88.4488048830527
4.569,1500,0.00325137,0.03275824,0.0471511,88.4488048830527
4.579,1500,0.07325137,0.05175824,0.0361511,88.4488048830527
4.589,1500,-0.00374863,0.00075824,-0.0028489,88.4488048830527
4.599,1500,0.11625137,0.07475824,0.1281511,88.4488048830527
4.609,1500,-0.08974863,-0.02224176,-0.0348489,88.4488048830527
4.619,1500,0.16825137,0.10675824,0.1191511,88.4488048830527
4.629,1500,-0.02274863,-0.02924176,-0.0618489,88.4488048830527
4.639,1500,0.11925137,0.00375824,-0.0158489,88.4488048830527
4.649,1500,-0.06374863,-0.01924176,-0.0518489,88.4488048830527
4.659,1500,0.00825137,-0.03424176,-0.1008489,88.4488048830527
4.669,1500,0.05025137,0.01075824,0.0091511,88.4488048830527
4.679,1500,-0.15974863,-0.08324176,-0.0968489,88.4488048830527
4.689,1500,-0.04374863,0.01575824,0.0341511,88.4488048830527
4.699,1500,-0.01874863,-0.04424176,-0.0338489,88.4488048830527
4.709,1500,0.03425137,0.00075824,-0.0088489,88.4488048830527
4.719,1500,-0.01374863,0.05575824,0.1301511,88.4488048830527
4.729,1500,-0.01274863,0.00175824,0.0071511,88.4488048830527
4.739,1500,-0.02874863,0.00875824,0.0351511,88.4488048830527
4.749,1500,0.03925137,-0.02824176,0.0051511,88.4488048830527
4.759,1500,-0.03474863,0.00975824,0.0811511,88.4488048830527
4.769,1500,0.08925137,0.00575824,0.0641511,88.4488048830527
4.779,1500,0.09325137,0.04575824,0.1111511,88.4488048830527
4.789,1500,0.22125137,0.03475824,0.1071511,88.4488048830527
4.799,1500,-0.06474863,0.00575824,0.0871511,88.4488048830527
4.809,1500,0.16425137,0.04275824,0.0401511,88.4488048830527
4.819,1500,-0.01374863,-0.01724176,-0.0268489,88.4488048830527
4.829,1500,0.15725137,0.04575824,-0.0248489,88.4488048830527
4.839,1500,-0.03074863,-0.04324176,-0.1208489,31.816711859459
4.849,1500,0.04325137,0.00775824,-0.0668489,31.816711859459
4.859,1500,-0.06574863,-0.03624176,-0.1108489,31.816711859459
4.869,1500,-0.16274863,-0.03924176,-0.0818489,31.816711859459
4.879,1500,-0.04574863,-0.02224176,-0.0348489,31.816711859459
4.889,1500,-0.06674863,0.00275824,0.0271511,31.816711859459
4.899,1500,0.02625137,-0.01424176,0.0191511,31.816711859459
4.909,1500,0.02725137,0.01075824,0.0361511,31.816711859459
4.919,1500,-0.05274863,-0.01524176,0.0001511,31.816711859459
4.929,1500,0.04725137,-0.01024176,0.0061511,31.816711859459
4.939,1500,0.04725137,0.01075824,0.0141511,31.816711859459
4.949,1500,0.02525137,-0.06424176,-0.1348489,31.816711859459
4.959,1500,0.07725137,0.00975824,-0.0248489,31.816711859459
4.969,1500,0.01025137,-0.04624176,-0.0708489,31.816711859459
4.979,1500,-0.03974863,-0.01324176,0.0091511,31.816711859459
4.989,1500,-0.05474863,0.01675824,0.0791511,31.816711859459
4.999,1500,0.03225137,0.00975824,0.0611511,31.816711859459
5.009,1500,-0.04374863,0.01775824,0.0441511,31.816711859459
5.019,1500,-0.10774863,-0.02724176,-0.0348489,31.816711859459
5.03,1500,0.01325137,-0.07324176,-0.1138489,31.816711859459
5.04,1500,0.13725137,0.01975824,0.0041511,31.816711859459
5.049,1500,-0.08074863,-0.10924176,-0.2078489,31.816711859459
5.059,1500,-0.00174863,0.02375824,0.0461511,31.816711859459
5.07,1500,-0.11974863,-0.10924176,-0.2028489,31.816711859459
5.08,1500,0.03625137,-0.01024176,-0.0098489,31.816711859459
5.089,1500,-0.11974863,-0.03124176,0.0031511,31.816711859459
5.099,1500,0.03425137,-0.00624176,0.0431511,31.816711859459
5.109,1500,-0.03574863,-0.00324176,0.0411511,31.816711859459
5.119,1500,0.06625137,-0.00824176,0.0641511,31.816711859459
5.129,1500,-0.02174863,0.02475824,0.1151511,31.816711859459
5.139,1500,0.17125137,0.02575824,0.0581511,31.816711859459
5.149,1500,-0.04874863,-0.02724176,-0.0298489,31.816711859459
5.159,1500,-0.07474863,-0.01624176,-0.0268489,31.816711859459
5.169,1500,0.02025137,-0.03024176,-0.0468489,31.816711859459
5.179,1500,-0.04974863,-0.07024176,-0.0508489,31.816711859459
5.189,1500,-0.04874863,-0.03024176,-0.0168489,31.816711859459
5.2,1500,-0.22774863,-0.08924176,-0.0118489,31.816711859459
5.209,1500,0.02425137,0.02275824,0.0581511,31.816711859459
5.219,1500,-0.04374863,-0.01124176,0.1011511,31.816711859459
5.229,1500,-0.02474863,0.01175824,0.0851511,31.816711859459
5.239,1500,0.17925137,0.07375824,0.1421511,31.816711859459
5.249,1500,0.06725137,-0.02624176,-0.0218489,31.816711859459
5.259,1500,0.11225137,0.03975824,-0.0198489,31.816711859459
5.27,1500,-0.02274863,-0.03724176,-0.0448489,31.816711859459
5.279,1500,0.08325137,0.02875824,0.0201511,31.816711859459
5.289,1500,-0.03974863,-0.02024176,-0.0008489,31.816711859459
5.3,1500,-0.09074863,-0.04624176,-0.0218489,31.816711859459
5.309,1500,0.10825137,0.01175824,0.0591511,31.816711859459
5.319,1500,-0.06474863,-0.03924176,-0.0088489,31.816711859459
5.329,1500,-0.11874863,-0.01224176,0.0451511,31.816711859459
5.339,1500,0.00925137,0.00575824,0.0651511,31.816711859459
5.349,1500,-0.04174863,-0.02424176,0.0041511,31.816711859459
5.359,1500,0.00025137,0.05675824,0.1651511,41.5096892071454
5.369,1500,-0.02674863,0.01175824,0.0381511,41.5096892071454
5.379,1500,0.06125137,-0.03124176,-0.0488489,41.5096892071454
5.389,1500,-0.02874863,-0.04024176,-0.0578489,41.5096892071454
5.399,1500,-0.01374863,-0.06024176,-0.1358489,41.5096892071454
5.409,1500,-0.00574863,-0.03324176,-0.0248489,41.5096892071454
5.42,1500,0.00725137,-0.02824176,-0.0318489,41.5096892071454
5.43,1500,0.02925137,-0.00424176,0.0171511,41.5096892071454
5.44,1500,-0.06474863,-0.03124176,-0.0238489,41.5096892071454
5.45,1500,0.09825137,0.00475824,0.0181511,41.5096892071454
5.46,1500,0.00325137,0.00575824,0.0621511,41.5096892071454
5.47,1500,0.12325137,0.00075824,-0.0008489,41.5096892071454
5.48,1500,-0.00274863,-0.00224176,0.0191511,41.5096892071454
5.49,1500,0.02125137,0.02375824,-0.0388489,41.5096892071454
5.5,1500,-0.11474863,-0.04724176,-0.0778489,41.5096892071454
5.51,1500,-0.04274863,0.00075824,-0.0378489,41.5096892071454
5.52,1500,0.06125137,-0.03724176,-0.0578489,41.5096892071454
5.53,1500,-0.03974863,-0.00624176,-0.0128489,41.5096892071454
5.54,1500,-0.06174863,-0.01424176,-0.0178489,41.5096892071454
5.549,1500,-0.18174863,-0.09624176,-0.0348489,41.5096892071454
5.559,1500,-0.00374863,0.01375824,0.0171511,41.5096892071454
5.57,1500,0.07025137,0.01575824,0.0521511,41.5096892071454
5.579,1500,-0.01974863,-0.06524176,-0.1038489,41.5096892071454
5.59,1500,0.02125137,-0.08624176,-0.1298489,41.5096892071454
5.599,1500,0.01625137,-0.03324176,-0.0738489,41.5096892071454
5.609,1500,-0.17674863,-0.13724176,-0.2188489,41.5096892071454
5.62,1500,0.04025137,0.01775824,0.0361511,41.5096892071454
5.629,1500,-0.05274863,-0.05924176,-0.0668489,41.5096892071454
5.64,1500,0.03725137,-0.01124176,0.0341511,41.5096892071454
5.65,1500,-0.03074863,-0.01924176,0.0031511,41.5096892071454
5.66,1500,0.02225137,0.01475824,0.0401511,41.5096892071454
5.67,1500,-0.08074863,-0.03424176,-0.0418489,41.5096892071454
5.68,1500,0.02525137,-0.00224176,0.0431511,41.5096892071454
5.69,1500,-0.03774863,-0.01524176,0.0071511,41.5096892071454
5.7,1500,-0.01174863,-0.02024176,-0.0038489,41.5096892071454
5.71,1500,0.01625137,-0.00924176,-0.0238489,41.5096892071454
5.72,1500,0.04825137,-0.02724176,-0.0118489,41.5096892071454
5.73,1500,-0.07174863,-0.03524176,-0.0258489,41.5096892071454
5.739,1500,0.07725137,-0.02124176,0.0231511,41.5096892071454
5.749,1500,0.04625137,0.01275824,0.0731511,41.5096892071454
5.76,1500,0.09425137,-0.02824176,0.0111511,41.5096892071454
5.77,1500,-0.02674863,0.01375824,0.0691511,41.5096892071454
5.779,1500,0.10625137,-0.01324176,-0.0118489,41.5096892071454
5.79,1500,0.06025137,-0.01224176,-0.0058489,41.5096892071454
5.799,1500,0.13225137,0.00875824,-0.0218489,41.5096892071454
5.809,1500,-0.00574863,-0.03624176,-0.0388489,41.5096892071454
5.82,1500,-0.06274863,-0.04924176,-0.0808489,41.5096892071454
5.829,1500,-0.08174863,-0.07824176,-0.1438489,41.5096892071454
5.84,1500,-0.27274863,-0.10224176,-0.0428489,41.5096892071454
5.849,1500,-0.01074863,0.05075824,0.1571511,41.5096892071454
5.859,1500,-0.07974863,-0.04724176,-0.0008489,41.5096892071454
5.87,1500,-0.04574863,0.02475824,0.0851511,41.5096892071454
5.879,1500,0.06925137,0.06475824,0.1461511,41.5096892071454
5.889,1500,-0.07674863,-0.06824176,-0.0548489,44.2547449885295
5.9,1500,0.18825137,0.16475824,0.2591511,44.2547449885295
5.909,1500,-0.02474863,-0.07424176,-0.1208489,44.2547449885295
5.919,1500,0.23125137,0.08775824,0.1221511,44.2547449885295
5.93,1500,-0.05774863,-0.05324176,-0.0458489,44.2547449885295
5.939,1500,0.11425137,0.00375824,-0.0168489,44.2547449885295
5.95,1500,-0.01974863,-0.02024176,-0.0158489,44.2547449885295
5.959,1500,-0.02174863,-0.05024176,-0.0528489,44.2547449885295
5.969,1500,-0.01174863,-0.01724176,-0.0098489,44.2547449885295
5.979,1500,-0.03074863,-0.01224176,0.0381511,44.2547449885295
5.989,1500,0.02525137,-0.01824176,-0.0018489,44.2547449885295
6,1500,0.01125137,-0.03424176,-0.0688489,44.2547449885295
6.009,1500,-0.01374863,-0.01824176,-0.0348489,44.2547449885295
6.02,1500,-0.05374863,-0.06924176,-0.1338489,44.2547449885295
6.029,1500,0.03225137,-0.00624176,0.0001511,44.2547449885295
6.04,1500,-0.01574863,-0.08524176,-0.1558489,44.2547449885295
6.05,1500,-0.01174863,-0.02224176,-0.0378489,44.2547449885295
6.059,1500,-0.09074863,-0.07824176,-0.1538489,44.2547449885295
6.07,1500,-0.01074863,-0.03024176,-0.0448489,44.2547449885295
6.079,1500,-0.08574863,0.01775824,0.0801511,44.2547449885295
6.09,1500,0.11025137,0.01275824,0.0481511,44.2547449885295
6.1,1500,0.01325137,0.00575824,0.0441511,44.2547449885295
6.11,1500,0.11325137,-0.03324176,-0.0158489,44.2547449885295
6.12,1500,0.02025137,0.01975824,0.0911511,44.2547449885295
6.13,1500,0.28325137,0.02275824,-0.0518489,44.2547449885295
6.14,1500,-0.05774863,-0.08324176,-0.1038489,44.2547449885295
6.15,1500,0.06825137,0.05575824,0.0001511,44.2547449885295
6.16,1500,0.03525137,-0.03924176,-0.1208489,44.2547449885295
6.169,1500,0.11725137,0.00975824,-0.0298489,44.2547449885295
6.18,1500,-0.02474863,-0.06024176,-0.0938489,44.2547449885295
6.189,1500,-0.31874863,-0.07224176,-0.0488489,44.2547449885295
6.2,1500,-0.02874863,0.05275824,0.0991511,44.2547449885295
6.21,1500,-0.12774863,-0.07124176,-0.0638489,44.2547449885295
6.219,1500,0.00725137,0.00675824,0.0301511,44.2547449885295
6.23,1500,-0.06574863,-0.08724176,-0.1608489,44.2547449885295
6.239,1500,0.06225137,-0.00024176,0.0171511,44.2547449885295
6.25,1500,-0.10974863,-0.08524176,-0.1008489,44.2547449885295
6.26,1500,-0.04374863,0.00175824,0.0161511,44.2547449885295
6.27,1500,-0.04774863,-0.03324176,-0.0728489,44.2547449885295
6.28,1500,0.00325137,0.00975824,0.0201511,44.2547449885295
6.29,1500,-0.06074863,-0.01624176,0.0631511,44.2547449885295
6.3,1500,-0.08674863,-0.01824176,0.0271511,44.2547449885295
6.31,1500,-0.07874863,0.00575824,0.0841511,44.2547449885295
6.32,1500,-0.01574863,-0.01824176,0.0311511,44.2547449885295
6.33,1500,0.08025137,0.06975824,0.1641511,44.2547449885295
6.34,1500,0.00425137,-0.02824176,0.0231511,44.2547449885295
6.35,1500,-0.05474863,-0.02824176,-0.0708489,44.2547449885295
6.36,1500,0.08025137,-0.00224176,0.0051511,44.2547449885295
6.37,1500,-0.05174863,-0.04224176,-0.0748489,44.2547449885295
6.38,1500,0.04425137,-0.01524176,0.0091511,44.2547449885295
6.391,1500,-0.01774863,-0.01624176,0.0261511,44.2547449885295
6.401,1500,0.12525137,0.00475824,0.0451511,48.1533825529413
6.411,1500,-0.05274863,-0.00624176,0.0331511,48.1533825529413
6.42,1500,0.03525137,-0.01724176,0.0031511,48.1533825529413
6.43,1500,-0.00674863,0.01275824,0.0441511,48.1533825529413
6.44,1500,0.15025137,0.02275824,0.0081511,48.1533825529413
6.45,1500,-0.01474863,-0.01624176,0.0101511,48.1533825529413
6.46,1500,-0.17774863,-0.02824176,-0.0638489,48.1533825529413
6.47,1500,0.01025137,0.01375824,0.0261511,48.1533825529413
6.48,1500,-0.35074863,-0.10424176,-0.0638489,48.1533825529413
6.49,1500,-0.01774863,0.04775824,0.0971511,48.1533825529413
6.5,1500,0.03525137,0.01975824,0.1361511,48.1533825529413
6.51,1500,0.02825137,-0.02124176,0.0011511,48.1533825529413
6.52,1500,-0.08974863,-0.01624176,0.0731511,48.1533825529413
6.53,1500,0.01125137,-0.01224176,0.0301511,48.1533825529413
6.54,1500,0.16025137,0.06675824,0.0561511,48.1533825529413
6.549,1500,-0.05674863,-0.02324176,-0.0368489,48.1533825529413
6.56,1500,-0.02374863,-0.02324176,-0.0608489,48.1533825529413
6.57,1500,0.09025137,0.03075824,0.0441511,48.1533825529413
6.58,1500,0.03125137,-0.05124176,-0.1478489,48.1533825529413
6.59,1500,0.00925137,0.00275824,-0.0378489,48.1533825529413
6.599,1500,-0.08674863,-0.06024176,-0.1258489,48.1533825529413
6.61,1500,0.00325137,0.00875824,-0.0068489,48.1533825529413
6.619,1500,-0.07474863,0.01375824,0.0331511,48.1533825529413
6.63,1500,-0.06174863,-0.00524176,0.0261511,48.1533825529413
6.64,1500,0.07825137,0.01375824,0.0771511,48.1533825529413
6.65,1500,-0.02474863,-0.03824176,-0.0498489,48.1533825529413
6.66,1500,0.11925137,0.05675824,0.1481511,48.1533825529413
6.669,1500,0.04925137,-0.01824176,0.0301511,48.1533825529413
6.68,1500,-0.05774863,-0.00724176,0.0311511,48.1533825529413
6.689,1500,0.00025137,-0.04324176,0.0031511,48.1533825529413
6.7,1500,-0.13474863,-0.04824176,0.0171511,48.1533825529413
6.71,1500,-0.08674863,-0.03924176,-0.0048489,48.1533825529413
6.72,1500,-0.00374863,-0.03224176,0.0001511,48.1533825529413
6.73,1500,-0.03274863,-0.04024176,-0.0218489,48.1533825529413
6.74,1500,-0.05274863,-0.03224176,-0.0028489,48.1533825529413
6.75,1500,-0.01174863,-0.03224176,0.0141511,48.1533825529413
6.76,1500,-0.00674863,-0.02924176,0.0111511,48.1533825529413
6.771,1500,-0.01774863,-0.03324176,0.0091511,48.1533825529413
6.78,1500,-0.03874863,-0.04524176,-0.0208489,48.1533825529413
6.79,1500,-0.00574863,-0.02024176,0.0021511,48.1533825529413
6.8,1500,-0.01774863,-0.01724176,0.0051511,48.1533825529413
6.81,1500,-0.02574863,-0.01424176,0.0001511,48.1533825529413
6.82,1500,-0.00374863,-0.00324176,-0.0068489,48.1533825529413
6.829,1500,-0.00174863,-0.00724176,-0.0068489,48.1533825529413
6.84,1500,0.00825137,-0.00224176,-0.0028489,48.1533825529413
6.849,1500,-0.00474863,-0.00124176,-0.0008489,48.1533825529413
6.86,1500,0.00725137,-0.00424176,0.0021511,48.1533825529413
6.869,1500,-0.00474863,-0.00224176,-0.0028489,48.1533825529413
6.88,1500,-0.00374863,-0.00224176,-0.0028489,48.1533825529413
6.89,1500,-0.00374863,0.00375824,0.0041511,48.1533825529413
6.9,1500,0.00025137,0.00775824,0.0051511,48.1533825529413
6.91,1500,0.01025137,0.01875824,0.0111511,48.1533825529413
6.919,1500,0.02025137,0.03275824,0.0011511,28.5669079973449
6.93,1500,0.03425137,0.05875824,-0.0008489,28.5669079973449
6.939,1500,0.03525137,0.06475824,-0.0078489,28.5669079973449
6.95,1500,0.03525137,0.08375824,-0.0058489,28.5669079973449
6.96,1500,0.06325137,0.08375824,-0.0108489,28.5669079973449
6.97,1500,0.07725137,0.08975824,-0.0008489,28.5669079973449
6.98,1500,0.05925137,0.07875824,-0.0398489,28.5669079973449
6.989,1500,0.00425137,0.07375824,-0.0258489,28.5669079973449
7,1500,0.01825137,0.07375824,-0.0008489,28.5669079973449
7.01,1500,0.00925137,0.05375824,0.0231511,28.5669079973449
7.02,1500,0.04125137,0.04575824,-0.0088489,28.5669079973449
7.03,1500,0.03425137,0.03175824,0.0051511,28.5669079973449
7.04,1500,0.12125137,0.04575824,-0.0038489,28.5669079973449
7.05,1500,-0.03374863,-0.00124176,-0.0058489,28.5669079973449
7.06,1500,-0.02474863,-0.00724176,0.0141511,28.5669079973449
7.069,1500,-0.03174863,-0.03224176,-0.0558489,28.5669079973449
7.08,1500,-0.01874863,0.00475824,0.0121511,28.5669079973449
7.09,1500,0.19225137,0.03875824,0.0321511,28.5669079973449
7.1,1500,-0.01874863,-0.02024176,-0.0468489,28.5669079973449
7.11,1500,-0.06674863,0.00275824,-0.0048489,28.5669079973449
7.12,1500,0.00825137,0.00275824,0.0271511,28.5669079973449
7.13,1500,-0.09974863,-0.02724176,0.0431511,28.5669079973449
7.14,1500,-0.09974863,0.00575824,-0.0298489,28.5669079973449
7.15,1500,-0.00274863,0.03175824,0.0041511,28.5669079973449
7.16,1500,-0.01374863,-0.00024176,0.0101511,28.5669079973449
7.17,1500,-0.06174863,-0.03324176,-0.0808489,28.5669079973449
7.18,1500,0.00725137,-0.00024176,0.0101511,28.5669079973449
7.19,1500,0.01125137,0.01075824,0.0651511,28.5669079973449
7.2,1500,-0.03774863,-0.01224176,-0.0078489,28.5669079973449
7.21,1500,0.08425137,0.00075824,0.0611511,28.5669079973449
7.22,1500,0.01925137,-0.02224176,0.0281511,28.5669079973449
7.23,1500,0.04725137,-0.01324176,-0.0198489,28.5669079973449
7.24,1500,0.00625137,-0.05124176,-0.0008489,28.5669079973449
7.25,1500,-0.02974863,-0.01224176,-0.0038489,28.5669079973449
7.26,1500,-0.00974863,0.03775824,-0.0308489,28.5669079973449
7.27,1500,0.05825137,0.01375824,0.0381511,28.5669079973449
7.281,1500,0.04425137,0.01075824,0.0101511,28.5669079973449
7.291,1500,-0.02474863,-0.04424176,-0.1138489,28.5669079973449
7.301,1500,-0.02774863,-0.02624176,0.0061511,28.5669079973449
7.311,1500,0.16825137,0.11175824,0.1631511,28.5669079973449
7.32,1500,-0.07874863,0.00775824,0.0561511,28.5669079973449
7.33,1500,0.09625137,-0.01124176,0.0261511,28.5669079973449
7.34,1500,-0.02174863,0.04275824,0.1031511,28.5669079973449
7.35,1500,-0.02874863,-0.03124176,-0.0278489,28.5669079973449
7.361,1500,0.03425137,-0.09424176,-0.1768489,28.5669079973449
7.37,1500,0.02725137,0.00375824,0.0161511,28.5669079973449
7.38,1500,0.08225137,-0.01124176,0.0021511,28.5669079973449
7.391,1500,-0.11674863,-0.02924176,-0.0128489,28.5669079973449
7.401,1500,0.00125137,-0.02524176,0.0041511,28.5669079973449
7.411,1500,0.02425137,0.00175824,0.0981511,28.5669079973449
7.421,1500,0.06325137,0.00575824,0.0031511,28.5669079973449
7.431,1500,-0.02374863,-0.00424176,0.0071511,28.5669079973449
7.44,1500,-0.00174863,-0.00324176,0.0121511,107.136899370598
7.45,1500,-0.01874863,-0.00924176,-0.0218489,107.136899370598
7.46,1500,-0.01674863,-0.00624176,-0.0668489,107.136899370598
7.47,1500,-0.04774863,0.00975824,0.0121511,107.136899370598
7.48,1500,0.04025137,0.00875824,-0.0198489,107.136899370598
7.49,1500,0.03225137,0.00575824,0.0031511,107.136899370598
7.5,1500,0.13625137,0.02375824,0.0251511,107.136899370598
7.51,1500,-0.11174863,-0.05624176,-0.0228489,107.136899370598
7.52,1500,-0.03874863,-0.01224176,0.0231511,107.136899370598
7.53,1500,0.00625137,0.00575824,0.0851511,107.136899370598
7.54,1500,-0.06674863,0.00475824,0.0151511,107.136899370598
7.55,1500,-0.22574863,-0.11524176,-0.0858489,107.136899370598
7.56,1500,0.02525137,-0.00624176,0.0521511,107.136899370598
7.57,1500,-0.02574863,0.00075824,-0.0308489,107.136899370598
7.58,1500,-0.10074863,-0.05624176,-0.1728489,107.136899370598
7.59,1500,0.07225137,0.02875824,-0.0128489,107.136899370598
7.601,1500,0.11225137,0.12275824,0.2291511,107.136899370598
7.61,1500,-0.11274863,-0.00924176,0.0251511,107.136899370598
7.62,1500,0.07525137,-0.03024176,0.0141511,107.136899370598
7.63,1500,-0.00574863,0.06675824,0.1531511,107.136899370598
7.64,1500,0.02025137,0.02175824,0.0191511,107.136899370598
7.65,1500,0.02225137,-0.04324176,-0.1188489,107.136899370598
7.66,1500,-0.03974863,-0.01724176,-0.0078489,107.136899370598
7.67,1500,0.04525137,-0.00824176,0.0091511,107.136899370598
7.68,1500,-0.01074863,-0.03024176,0.0031511,107.136899370598
7.69,1500,0.06125137,0.00475824,0.0071511,107.136899370598
7.7,1500,0.01825137,-0.01624176,-0.0068489,107.136899370598
7.711,1500,-0.00074863,-0.00224176,-0.0028489,107.136899370598
7.72,1500,0.03725137,0.03075824,0.0811511,107.136899370598
7.73,1500,-0.05774863,-0.01924176,0.0311511,107.136899370598
7.74,1500,0.03225137,-0.00824176,-0.0058489,107.136899370598
7.75,1500,-0.03374863,-0.05624176,-0.0288489,107.136899370598
7.76,1500,-0.06474863,-0.06824176,-0.0138489,107.136899370598
7.77,1500,-0.15774863,-0.08024176,-0.0308489,107.136899370598
7.78,1500,-0.03774863,-0.07024176,-0.0088489,107.136899370598
7.79,1500,-0.00874863,-0.11324176,0.0221511,107.136899370598
7.8,1500,0.03825137,-0.10524176,0.0251511,107.136899370598
7.811,1500,-0.05774863,-0.12124176,0.0321511,107.136899370598
7.821,1500,-0.01674863,-0.11924176,0.0191511,107.136899370598
7.831,1500,-0.01174863,-0.08824176,0.0211511,107.136899370598
7.841,1500,-0.02874863,-0.08324176,0.0171511,107.136899370598
7.851,1500,-0.05774863,-0.05524176,0.0031511,107.136899370598
7.861,1500,-0.05174863,-0.04124176,-0.0078489,107.136899370598
7.871,1500,-0.02074863,-0.04624176,-0.0068489,107.136899370598
7.881,1500,-0.01274863,-0.02624176,0.0031511,107.136899370598
7.891,1500,-0.01774863,-0.02024176,-0.0098489,107.136899370598
7.9,1500,-0.01074863,-0.02524176,-0.0048489,107.136899370598
7.91,1500,-0.00974863,-0.00924176,-0.0038489,107.136899370598
7.92,1500,-0.01074863,-0.00824176,0.0031511,107.136899370598
7.93,1500,-0.00874863,0.00275824,0.0021511,107.136899370598
7.94,1500,-0.00774863,0.00775824,0.0001511,107.136899370598
7.95,1500,-0.00574863,-0.00624176,-0.0018489,107.136899370598
7.96,1500,-0.00774863,-0.01024176,-0.0048489,62.3002758253068
7.97,1500,-0.02074863,-0.01324176,-0.0028489,62.3002758253068
7.981,1500,-0.00074863,-0.03724176,0.0041511,62.3002758253068
7.991,1500,-0.04574863,-0.09724176,-0.0188489,62.3002758253068
8.001,1500,-0.03274863,-0.12824176,-0.0018489,62.3002758253068
8.011,1500,-0.05474863,-0.14924176,0.0201511,62.3002758253068
8.021,1500,-0.02874863,-0.14024176,0.0311511,62.3002758253068
8.031,1500,-0.03074863,-0.09924176,0.0481511,62.3002758253068
8.041,1500,-0.07474863,-0.09824176,0.0041511,62.3002758253068
8.051,1500,-0.04974863,-0.09824176,0.0021511,62.3002758253068
8.061,1500,-0.05574863,-0.07124176,-0.0038489,62.3002758253068
8.07,1500,-0.02174863,-0.07024176,-0.0078489,62.3002758253068
8.08,1500,-0.02774863,-0.04524176,-0.0008489,62.3002758253068
8.091,1500,-0.04574863,-0.03824176,-0.0058489,62.3002758253068
8.1,1500,0.03025137,-0.04224176,0.0081511,62.3002758253068
8.11,1500,-0.00674863,-0.02824176,-0.0108489,62.3002758253068
8.12,1500,-0.12374863,-0.02824176,-0.0438489,62.3002758253068
8.13,1500,-0.01574863,0.01775824,0.0231511,62.3002758253068
8.141,1500,-0.05174863,0.01175824,-0.0068489,62.3002758253068
8.151,1500,-0.05674863,-0.01524176,0.0151511,62.3002758253068
8.161,1500,-0.06074863,-0.03024176,-0.0098489,62.3002758253068
8.171,1500,0.00425137,0.00475824,0.0411511,62.3002758253068
8.181,1500,0.02425137,-0.00924176,0.0361511,62.3002758253068
8.191,1500,0.08225137,0.02375824,0.0421511,62.3002758253068
8.201,1500,0.03425137,0.00975824,0.0771511,62.3002758253068
8.211,1500,-0.03374863,-0.03624176,0.0001511,62.3002758253068
8.221,1500,0.00425137,-0.02424176,-0.0288489,62.3002758253068
8.231,1500,0.03625137,-0.01824176,-0.0048489,62.3002758253068
8.241,1500,0.17525137,0.03975824,0.0271511,62.3002758253068
8.251,1500,0.02525137,0.00175824,-0.0188489,62.3002758253068
8.261,1500,0.03125137,0.00175824,-0.0068489,62.3002758253068
8.271,1500,0.04225137,0.03175824,0.1201511,62.3002758253068
8.28,1500,-0.19074863,-0.00424176,0.0011511,62.3002758253068
8.29,1500,-0.07274863,-0.01924176,-0.0278489,62.3002758253068
8.3,1500,-0.04274863,0.01075824,0.0081511,62.3002758253068
8.31,1500,-0.06474863,-0.00624176,-0.0308489,62.3002758253068
8.32,1500,0.03725137,-0.04024176,0.0081511,62.3002758253068
8.331,1500,-0.01274863,-0.02924176,0.0011511,62.3002758253068
8.341,1500,-0.00774863,-0.00324176,-0.0058489,62.3002758253068
8.351,1500,-0.01774863,-0.00424176,-0.0148489,62.3002758253068
8.361,1500,-0.06674863,0.01375824,0.0351511,62.3002758253068
8.371,1500,-0.01874863,0.02275824,0.0181511,62.3002758253068
8.381,1500,0.10325137,0.01575824,-0.0068489,62.3002758253068
8.391,1500,0.00825137,-0.02224176,-0.0488489,62.3002758253068
8.4,1500,-0.01974863,-0.01224176,-0.0168489,62.3002758253068
8.411,1500,0.09925137,0.03875824,0.0341511,62.3002758253068
8.42,1500,-0.07674863,-0.01224176,0.0331511,62.3002758253068
8.431,1500,-0.06974863,-0.01624176,-0.0148489,62.3002758253068
8.441,1500,0.07225137,-0.01624176,0.0071511,62.3002758253068
8.45,1500,0.04525137,0.00175824,0.0071511,62.3002758253068
8.461,1500,0.03725137,0.00875824,0.0841511,62.3002758253068
8.47,1500,-0.00574863,-0.03224176,0.0041511,62.3002758253068
8.481,1500,-0.01674863,-0.02824176,-0.0038489,113.754712367548
8.49,1500,-0.14674863,-0.01724176,0.0271511,113.754712367548
8.5,1500,-0.02874863,0.00175824,-0.0218489,113.754712367548
8.511,1500,0.10625137,0.00675824,-0.0788489,113.754712367548
8.52,1500,0.06025137,0.00375824,-0.0408489,113.754712367548
8.531,1500,-0.10374863,-0.02824176,-0.0068489,113.754712367548
8.54,1500,0.01225137,-0.02124176,0.0061511,113.754712367548
8.55,1500,-0.05474863,-0.03124176,-0.0088489,113.754712367548
8.561,1500,-0.08474863,-0.01424176,-0.0538489,113.754712367548
8.57,1500,-0.00674863,-0.00524176,0.0041511,113.754712367548
8.581,1500,0.04725137,-0.00924176,0.0231511,113.754712367548
8.59,1500,0.10025137,-0.01024176,0.0041511,113.754712367548
8.6,1500,0.05225137,-0.01024176,-0.0028489,113.754712367548
8.611,1500,0.02125137,0.01375824,0.0751511,113.754712367548
8.62,1500,-0.05274863,-0.01624176,-0.0038489,113.754712367548
8.631,1500,-0.13074863,-0.05624176,-0.0908489,113.754712367548
8.64,1500,0.03425137,0.01575824,0.0221511,113.754712367548
8.65,1500,0.07025137,0.00575824,-0.0038489,113.754712367548
8.661,1500,0.01825137,0.03775824,0.1001511,113.754712367548
8.67,1500,0.03025137,0.01075824,-0.0308489,113.754712367548
8.681,1500,-0.05374863,-0.04524176,-0.0908489,113.754712367548
8.69,1500,-0.00474863,0.00575824,-0.0018489,113.754712367548
8.701,1500,-0.11474863,-0.01524176,-0.0298489,113.754712367548
8.711,1500,0.00625137,-0.00924176,0.0031511,113.754712367548
8.72,1500,-0.00874863,-0.01524176,0.0071511,113.754712367548
8.731,1500,0.03125137,0.00175824,-0.0118489,113.754712367548
8.74,1500,0.02625137,-0.00624176,-0.0048489,113.754712367548
8.751,1500,0.01225137,-0.00424176,-0.0038489,113.754712367548
8.761,1500,0.02925137,0.02575824,-0.0018489,113.754712367548
8.772,1500,-0.11374863,-0.00624176,-0.0148489,113.754712367548
8.781,1500,0.06725137,0.07275824,0.0411511,113.754712367548
8.791,1500,-0.01174863,0.06175824,-0.0148489,113.754712367548
8.8,1500,0.12525137,0.11275824,0.0101511,113.754712367548
8.811,1500,0.01225137,0.09275824,-0.0328489,113.754712367548
8.821,1500,0.06125137,0.08875824,-0.0038489,113.754712367548
8.831,1500,0.04225137,0.06975824,0.0001511,113.754712367548
8.84,1500,0.05525137,0.09675824,-0.0448489,113.754712367548
8.851,1500,0.04925137,0.09075824,-0.0218489,113.754712367548
8.86,1500,0.05525137,0.07475824,-0.0108489,113.754712367548
8.871,1500,0.06325137,0.07075824,-0.0098489,113.754712367548
8.88,1500,0.01825137,0.04475824,-0.0008489,113.754712367548
8.891,1500,0.01725137,0.03575824,0.0041511,113.754712367548
8.901,1500,0.02525137,0.01375824,-0.0008489,113.754712367548
8.911,1500,0.01325137,0.00475824,0.0011511,113.754712367548
8.921,1500,0.00925137,0.01575824,0.0011511,113.754712367548
8.931,1500,-0.00174863,0.01175824,-0.0038489,113.754712367548
8.941,1500,-0.00574863,0.00475824,-0.0018489,113.754712367548
8.951,1500,-0.00674863,0.00875824,0.0011511,113.754712367548
8.961,1500,0.00325137,-0.00224176,0.0031511,113.754712367548
8.971,1500,0.00325137,-0.00524176,-0.0028489,113.754712367548
8.981,1500,-0.00674863,-0.00124176,-0.0138489,113.754712367548
8.991,1500,-0.01174863,-0.00124176,-0.0048489,113.754712367548
9.001,1500,-0.01074863,-0.00024176,0.0011511,113.754712367548
9.011,1500,-0.00574863,-0.00924176,0.0041511,57.1933693389629
9.021,1500,-0.00674863,-0.02024176,0.0021511,57.1933693389629
9.031,1500,-0.00974863,-0.02324176,0.0021511,57.1933693389629
9.04,1500,-0.01074863,-0.02924176,0.0041511,57.1933693389629
9.051,1500,-0.06474863,-0.04124176,-0.0008489,57.1933693389629
9.06,1500,-0.02574863,-0.02824176,0.0071511,57.1933693389629
9.071,1500,0.00025137,-0.02824176,0.0021511,57.1933693389629
9.081,1500,-0.03774863,-0.03124176,-0.0078489,57.1933693389629
9.091,1500,-0.00774863,-0.03724176,-0.0048489,57.1933693389629
9.102,1500,0.03725137,-0.03324176,-0.0018489,57.1933693389629
9.111,1500,-0.03774863,-0.03824176,0.0041511,57.1933693389629
9.121,1500,0.00025137,-0.02824176,0.0171511,57.1933693389629
9.131,1500,-0.04774863,-0.03824176,0.0301511,57.1933693389629
9.141,1500,-0.06574863,-0.01224176,0.0481511,57.1933693389629
9.151,1500,-0.04174863,-0.01824176,0.0071511,57.1933693389629
9.161,1500,0.01925137,-0.04724176,-0.0708489,57.1933693389629
9.172,1500,-0.04274863,-0.00924176,0.0021511,57.1933693389629
9.182,1500,0.03725137,0.00775824,0.0231511,57.1933693389629
9.192,1500,-0.02174863,-0.00224176,-0.0118489,57.1933693389629
9.201,1500,0.03425137,0.01175824,0.0151511,57.1933693389629
9.211,1500,0.05925137,-0.01224176,-0.0018489,57.1933693389629
9.221,1500,0.02925137,-0.00724176,-0.0088489,57.1933693389629
9.231,1500,0.04725137,-0.01524176,-0.0008489,57.1933693389629
9.241,1500,0.00325137,-0.02824176,-0.0528489,57.1933693389629
9.251,1500,-0.00374863,-0.01624176,-0.0028489,57.1933693389629
9.261,1500,-0.00074863,-0.02524176,-0.0418489,57.1933693389629
9.271,1500,0.06125137,0.03075824,0.0261511,57.1933693389629
9.281,1500,0.07525137,0.01375824,0.0381511,57.1933693389629
9.291,1500,-0.00774863,-0.00324176,-0.0238489,57.1933693389629
9.301,1500,0.12725137,0.03075824,0.0661511,57.1933693389629
9.311,1500,-0.10274863,-0.01924176,-0.0248489,57.1933693389629
9.321,1500,-0.05174863,-0.05724176,-0.1028489,57.1933693389629
9.331,1500,-0.09174863,-0.00824176,-0.0008489,57.1933693389629
9.341,1500,-0.00874863,-0.07524176,-0.1708489,57.1933693389629
9.351,1500,-0.15774863,-0.01424176,0.0161511,57.1933693389629
9.361,1500,-0.00974863,-0.01124176,-0.0108489,57.1933693389629
9.371,1500,0.06125137,-0.00324176,0.0221511,57.1933693389629
9.381,1500,-0.01574863,0.00375824,0.0521511,57.1933693389629
9.391,1500,-0.00574863,-0.00624176,0.0431511,57.1933693389629
9.401,1500,-0.03274863,0.00175824,0.0041511,57.1933693389629
9.411,1500,0.08625137,0.00575824,-0.0158489,57.1933693389629
9.421,1500,0.01625137,-0.00224176,-0.0148489,57.1933693389629
9.431,1500,0.02625137,0.00875824,-0.0198489,57.1933693389629
9.441,1500,0.00225137,-0.01724176,-0.0168489,57.1933693389629
9.451,1500,-0.06874863,-0.04224176,-0.0168489,57.1933693389629
9.461,1500,-0.00074863,-0.01824176,0.0011511,57.1933693389629
9.471,1500,0.03225137,-0.01824176,-0.0288489,57.1933693389629
9.481,1500,-0.02874863,-0.02524176,-0.0048489,57.1933693389629
9.491,1500,-0.01674863,-0.02824176,-0.0288489,57.1933693389629
9.501,1500,-0.01074863,-0.01624176,0.0151511,57.1933693389629
9.511,1500,-0.05974863,-0.01024176,0.0481511,57.1933693389629
9.521,1500,-0.04974863,-0.00624176,0.0111511,57.1933693389629
9.531,1500,0.01725137,0.00975824,0.0631511,48.7868492586116
9.541,1500,0.02125137,-0.01824176,-0.0108489,48.7868492586116
9.551,1500,0.04325137,-0.00024176,0.0061511,48.7868492586116
9.561,1500,-0.04274863,-0.01524176,-0.0188489,48.7868492586116
9.57,1500,-0.00374863,-0.02824176,-0.0738489,48.7868492586116
9.581,1500,0.01225137,-0.01024176,-0.0078489,48.7868492586116
9.591,1500,-0.04474863,-0.03424176,-0.0348489,48.7868492586116
9.601,1500,0.00525137,-0.00824176,0.0101511,48.7868492586116
9.611,1500,-0.01274863,-0.00024176,0.0231511,48.7868492586116
9.621,1500,-0.02574863,0.00475824,-0.0018489,48.7868492586116
9.632,1500,0.05325137,-0.04024176,-0.0598489,48.7868492586116
9.641,1500,-0.09174863,-0.01424176,-0.0158489,48.7868492586116
9.651,1500,-0.00274863,-0.01824176,-0.0258489,48.7868492586116
9.661,1500,-0.08974863,-0.02024176,-0.0008489,48.7868492586116
9.671,1500,-0.01174863,-0.02224176,-0.0248489,48.7868492586116
9.681,1500,-0.09674863,-0.04524176,-0.0218489,48.7868492586116
9.691,1500,0.01625137,0.03375824,0.0871511,48.7868492586116
9.701,1500,-0.10074863,-0.03624176,0.0101511,48.7868492586116
9.711,1500,0.01425137,0.01375824,0.0411511,48.7868492586116
9.721,1500,-0.07274863,-0.02524176,0.0291511,48.7868492586116
9.731,1500,-0.00274863,-0.00624176,0.0241511,48.7868492586116
9.741,1500,0.11325137,0.00275824,0.0361511,48.7868492586116
9.752,1500,-0.02174863,-0.01324176,0.0261511,48.7868492586116
9.761,1500,0.09525137,-0.01224176,-0.0128489,48.7868492586116
9.771,1500,0.00325137,-0.01924176,-0.0138489,48.7868492586116
9.781,1500,0.01125137,-0.01824176,-0.0358489,48.7868492586116
9.791,1500,-0.04374863,-0.03024176,-0.0248489,48.7868492586116
9.801,1500,0.00425137,-0.03524176,-0.0558489,48.7868492586116
9.811,1500,-0.03674863,-0.00724176,0.0091511,48.7868492586116
9.821,1500,0.03825137,0.03075824,0.0921511,48.7868492586116
9.831,1500,-0.01974863,-0.04024176,-0.0168489,48.7868492586116
9.842,1500,0.00425137,0.01375824,0.1271511,48.7868492586116
9.852,1500,-0.02774863,0.00375824,0.0641511,48.7868492586116
9.861,1500,0.02425137,-0.03824176,-0.0378489,48.7868492586116
9.871,1500,0.00725137,-0.02824176,-0.0158489,48.7868492586116
9.881,1500,0.10925137,-0.04124176,-0.0688489,48.7868492586116
9.891,1500,0.01225137,-0.02324176,-0.0058489,48.7868492586116
9.901,1500,-0.00274863,-0.03124176,-0.0308489,48.7868492586116
9.911,1500,0.04825137,-0.02724176,-0.0168489,48.7868492586116
9.922,1500,-0.04674863,0.01675824,0.0701511,48.7868492586116
9.932,1500,-0.04374863,-0.02024176,-0.0168489,48.7868492586116
9.941,1500,0.04525137,0.02575824,0.0711511,48.7868492586116
9.951,1500,0.07625137,-0.00624176,-0.0108489,48.7868492586116
9.961,1500,0.06125137,0.00675824,0.0281511,48.7868492586116
9.971,1500,-0.08674863,-0.01924176,-0.0048489,48.7868492586116
9.981,1500,0.03725137,0.00275824,0.0381511,48.7868492586116
9.991,1500,-0.07974863,-0.03024176,-0.0108489,48.7868492586116
10.002,1500,-0.00674863,-0.04924176,-0.0788489,48.7868492586116
10.012,1500,-0.08074863,-0.01424176,-0.0038489,48.7868492586116
10.021,1500,0.01825137,-0.03724176,-0.0568489,48.7868492586116
10.031,1500,-0.10574863,-0.02524176,0.0061511,48.7868492586116
10.041,1500,-0.00874863,0.00875824,0.0561511,48.7868492586116
10.051,1500,-0.07174863,-0.03824176,0.0141511,46.4131582844262
10.061,1500,-0.01174863,0.02675824,0.0881511,46.4131582844262
10.071,1500,0.12225137,0.02675824,0.0301511,46.4131582844262
10.081,1500,0.06725137,0.01475824,0.0191511,46.4131582844262
10.091,1500,0.09125137,0.02475824,0.0011511,46.4131582844262
10.101,1500,-0.01074863,-0.04024176,-0.0588489,46.4131582844262
10.112,1500,0.11225137,-0.01724176,-0.0678489,46.4131582844262
10.121,1500,0.10025137,-0.05624176,-0.0598489,46.4131582844262
10.131,1500,-0.10474863,-0.07324176,-0.1128489,46.4131582844262
10.142,1500,-0.03574863,-0.04924176,-0.0988489,46.4131582844262
10.152,1500,0.03225137,-0.02224176,-0.0698489,46.4131582844262
10.162,1500,0.02925137,-0.03924176,-0.0318489,46.4131582844262
10.172,1500,-0.07974863,-0.03024176,0.0101511,46.4131582844262
10.181,1500,-0.01074863,-0.00424176,0.0151511,46.4131582844262
10.191,1500,0.01625137,-0.00224176,0.0051511,46.4131582844262
10.201,1500,-0.00974863,-0.01124176,-0.0068489,46.4131582844262
10.211,1500,-0.01174863,-0.00024176,0.0221511,46.4131582844262
10.221,1500,-0.02374863,-0.02824176,0.0031511,46.4131582844262
10.231,1500,0.05725137,-0.03124176,-0.0418489,46.4131582844262
10.241,1500,0.01325137,-0.01924176,0.0041511,46.4131582844262
10.252,1500,-0.06974863,-0.03024176,-0.0338489,46.4131582844262
10.262,1500,-0.00574863,-0.02124176,-0.0028489,46.4131582844262
10.272,1500,-0.01474863,-0.02524176,-0.0078489,46.4131582844262
10.282,1500,0.04225137,-0.00224176,0.0121511,46.4131582844262
10.292,1500,0.09325137,-0.00624176,0.0021511,46.4131582844262
10.302,1500,-0.06374863,-0.01724176,-0.0378489,46.4131582844262
10.312,1500,-0.01774863,-0.03324176,-0.0378489,46.4131582844262
10.322,1500,-0.11074863,-0.02424176,-0.0178489,46.4131582844262
10.331,1500,-0.00274863,-0.01724176,0.0021511,46.4131582844262
10.341,1500,-0.13274863,-0.03824176,-0.0208489,46.4131582844262
10.351,1500,-0.06474863,-0.05824176,-0.0738489,46.4131582844262
10.361,1500,-0.07074863,-0.03124176,0.0451511,46.4131582844262
10.371,1500,0.01225137,-0.00824176,0.0571511,46.4131582844262
10.381,1500,-0.15674863,-0.04224176,0.0051511,46.4131582844262
10.391,1500,-0.07074863,-0.03224176,-0.0178489,46.4131582844262
10.401,1500,0.04325137,0.00875824,0.0431511,46.4131582844262
10.411,1500,-0.00674863,-0.00124176,0.0241511,46.4131582844262
10.421,1500,-0.00174863,-0.02724176,-0.0248489,46.4131582844262
10.431,1500,-0.02774863,-0.01524176,0.0011511,46.4131582844262
10.441,1500,-0.11674863,-0.04324176,-0.0278489,46.4131582844262
10.452,1500,0.02125137,0.00975824,0.0341511,46.4131582844262
10.462,1500,-0.10174863,0.00575824,0.1301511,46.4131582844262
10.472,1500,-0.05574863,-0.01624176,0.0441511,46.4131582844262
10.482,1500,-0.04474863,-0.01624176,0.0471511,46.4131582844262
10.492,1500,0.03325137,0.00075824,0.0381511,46.4131582844262
10.502,1500,0.01325137,-0.00624176,0.0941511,46.4131582844262
10.512,1500,-0.07974863,-0.00624176,0.0311511,46.4131582844262
10.522,1500,-0.04674863,0.01575824,0.0921511,46.4131582844262
10.532,1500,-0.02074863,-0.00924176,0.0031511,46.4131582844262
10.542,1500,-0.05974863,-0.03824176,-0.0888489,46.4131582844262
10.552,1500,0.01925137,-0.00024176,0.0231511,46.4131582844262
10.561,1500,0.03625137,-0.03724176,-0.0568489,46.4131582844262
10.572,1500,0.00025137,-0.00424176,0.0321511,42.8674426491861
10.582,1500,-0.05974863,-0.02724176,-0.0298489,42.8674426491861
10.591,1500,-0.08274863,-0.02624176,0.0011511,42.8674426491861
10.601,1500,-0.04074863,-0.00624176,0.0911511,42.8674426491861
10.611,1500,0.05625137,-0.00924176,0.0431511,42.8674426491861
10.621,1500,0.03125137,0.01375824,0.0851511,42.8674426491861
10.632,1500,0.05225137,0.01775824,0.0411511,42.8674426491861
10.642,1500,0.09725137,0.02575824,0.0871511,42.8674426491861
10.652,1500,-0.05674863,-0.03624176,-0.0158489,42.8674426491861
10.662,1500,-0.02074863,-0.01724176,0.0541511,42.8674426491861
10.672,1500,-0.04874863,-0.03224176,-0.0028489,42.8674426491861
10.682,1500,0.00025137,-0.00524176,-0.0008489,42.8674426491861
10.692,1500,0.04725137,-0.01624176,0.0421511,42.8674426491861
10.702,1500,0.06125137,0.01475824,0.0781511,42.8674426491861
10.712,1500,-0.17674863,-0.05824176,0.0331511,42.8674426491861
10.723,1500,-0.07474863,0.00475824,0.0791511,42.8674426491861
10.731,1500,0.02125137,-0.01224176,0.0471511,42.8674426491861
10.741,1500,0.03325137,0.02175824,0.1031511,42.8674426491861
10.751,1500,0.00525137,-0.01924176,0.0111511,42.8674426491861
10.761,1500,0.00425137,-0.01024176,0.0031511,42.8674426491861
10.772,1500,0.17525137,0.03175824,-0.0048489,42.8674426491861
10.782,1500,-0.00374863,-0.04324176,-0.0928489,42.8674426491861
10.791,1500,0.08625137,0.01875824,-0.0238489,42.8674426491861
10.802,1500,-0.01974863,-0.02824176,-0.0488489,42.8674426491861
10.812,1500,0.00425137,-0.02824176,-0.0428489,42.8674426491861
10.821,1500,0.03625137,-0.00524176,0.0051511,42.8674426491861
10.832,1500,-0.01574863,0.01175824,0.0501511,42.8674426491861
10.841,1500,0.07225137,-0.01524176,-0.0158489,42.8674426491861
10.851,1500,0.06225137,0.01475824,0.0701511,42.8674426491861
10.862,1500,-0.04074863,-0.02224176,-0.0038489,42.8674426491861
10.872,1500,0.03725137,-0.00224176,0.0181511,42.8674426491861
10.881,1500,0.01325137,-0.02324176,-0.0218489,42.8674426491861
10.892,1500,0.02025137,-0.02824176,-0.0538489,42.8674426491861
10.902,1500,0.03025137,-0.00824176,-0.0268489,42.8674426491861
10.911,1500,0.03725137,-0.00724176,-0.0448489,42.8674426491861
10.922,1500,0.06725137,-0.01624176,-0.0018489,42.8674426491861
10.932,1500,-0.01374863,-0.02024176,-0.0128489,42.8674426491861
10.941,1500,-0.02074863,-0.01124176,0.0041511,42.8674426491861
10.952,1500,0.04525137,0.00175824,-0.0288489,42.8674426491861
10.962,1500,-0.04374863,0.00875824,-0.0118489,42.8674426491861
10.971,1500,0.02125137,-0.02824176,-0.0638489,42.8674426491861
10.982,1500,-0.00474863,0.00575824,-0.0188489,42.8674426491861
10.992,1500,-0.00874863,-0.03324176,-0.0538489,42.8674426491861
11.001,1500,-0.16674863,-0.04024176,-0.0328489,42.8674426491861
11.012,1500,0.00925137,-0.02924176,-0.0478489,42.8674426491861
11.021,1500,-0.08574863,-0.00624176,-0.0108489,42.8674426491861
11.031,1500,-0.03174863,-0.04324176,-0.0798489,42.8674426491861
11.042,1500,-0.08574863,-0.00424176,0.0041511,42.8674426491861
11.051,1500,0.02925137,-0.01124176,0.0041511,42.8674426491861
11.062,1500,-0.11474863,-0.03124176,0.0071511,42.8674426491861
11.072,1500,-0.05474863,-0.01024176,0.0301511,42.8674426491861
11.081,1500,0.11625137,-0.00424176,-0.0098489,42.8674426491861
11.092,1500,-0.00374863,-0.00024176,-0.0108489,40.0198332963702
11.102,1500,0.02425137,-0.01024176,-0.0308489,40.0198332963702
11.111,1500,0.01125137,-0.01624176,-0.0268489,40.0198332963702
11.122,1500,0.01725137,-0.02124176,-0.0518489,40.0198332963702
11.131,1500,0.00525137,-0.02624176,-0.0388489,40.0198332963702
11.141,1500,0.03525137,-0.02824176,-0.0608489,40.0198332963702
11.152,1500,0.03525137,-0.02424176,-0.0588489,40.0198332963702
11.161,1500,-0.04674863,-0.02124176,-0.0218489,40.0198332963702
11.172,1500,-0.03074863,0.00175824,-0.0068489,40.0198332963702
11.182,1500,0.00925137,0.00175824,0.0041511,40.0198332963702
11.191,1500,0.01425137,0.01175824,-0.0028489,40.0198332963702
11.202,1500,-0.00574863,-0.01924176,-0.0158489,40.0198332963702
11.212,1500,0.00225137,0.01475824,0.0051511,40.0198332963702
11.221,1500,-0.02374863,-0.02324176,-0.0658489,40.0198332963702
11.232,1500,0.00325137,0.00175824,0.0101511,40.0198332963702
11.241,1500,-0.02574863,-0.01124176,-0.0268489,40.0198332963702
11.252,1500,0.04725137,-0.00824176,-0.0008489,40.0198332963702
11.262,1500,-0.04974863,-0.00824176,0.0211511,40.0198332963702
11.271,1500,-0.02374863,-0.01124176,0.0131511,40.0198332963702
11.282,1500,0.04925137,0.01775824,0.0371511,40.0198332963702
11.292,1500,0.03225137,0.01675824,-0.0128489,40.0198332963702
11.301,1500,0.07525137,0.04175824,0.0491511,40.0198332963702
11.312,1500,0.00425137,0.01375824,-0.0018489,40.0198332963702
11.322,1500,0.01725137,0.02775824,-0.0178489,40.0198332963702
11.331,1500,-0.00074863,0.01775824,-0.0008489,40.0198332963702
11.342,1500,0.03725137,0.00675824,-0.0518489,40.0198332963702
11.352,1500,0.02625137,-0.00324176,-0.0418489,40.0198332963702
11.361,1500,0.01125137,0.04475824,0.0221511,40.0198332963702
11.372,1500,-0.03074863,0.00675824,-0.0438489,40.0198332963702
11.382,1500,-0.05874863,0.01975824,-0.0028489,40.0198332963702
11.392,1500,0.02125137,0.03775824,0.0071511,40.0198332963702
11.402,1500,0.00125137,0.01575824,-0.0128489,40.0198332963702
11.411,1500,0.02825137,0.01275824,-0.0108489,40.0198332963702
11.422,1500,0.02025137,0.01475824,-0.0108489,40.0198332963702
11.432,1500,0.02225137,0.02475824,-0.0038489,40.0198332963702
11.442,1500,0.01225137,0.01775824,-0.0058489,40.0198332963702
11.452,1500,0.01825137,0.01375824,-0.0018489,40.0198332963702
11.461,1500,0.00925137,0.00575824,-0.0038489,40.0198332963702
11.472,1500,0.00225137,0.00675824,-0.0058489,40.0198332963702
11.482,1500,-0.00274863,0.00575824,-0.0038489,40.0198332963702
11.491,1500,-0.00474863,0.00575824,0.0051511,40.0198332963702
11.502,1500,0.00225137,0.00375824,-0.0028489,40.0198332963702
11.512,1500,-0.00174863,0.00675824,0.0061511,40.0198332963702
11.522,1500,-0.00974863,0.00475824,0.0051511,40.0198332963702
11.532,1500,-0.00474863,-0.00924176,0.0001511,40.0198332963702
11.541,1500,-0.01774863,-0.02324176,0.0051511,40.0198332963702
11.552,1500,-0.01474863,-0.03524176,0.0011511,40.0198332963702
11.562,1500,-0.01774863,-0.06224176,-0.0018489,40.0198332963702
11.571,1500,-0.02374863,-0.08924176,0.0121511,40.0198332963702
11.582,1500,-0.01074863,-0.09624176,0.0211511,40.0198332963702
11.592,1500,-0.03474863,-0.11324176,0.0101511,40.0198332963702
11.601,1500,-0.05174863,-0.14424176,0.0151511,40.0198332963702
11.612,1500,-0.01974863,-0.13724176,0.0171511,40.0198332963702
11.622,1500,-0.01774863,-0.12924176,0.0041511,37.1563870811966
11.632,1500,-0.06074863,-0.11924176,0.0051511,37.1563870811966
11.642,1500,-0.05874863,-0.10724176,-0.0028489,37.1563870811966
11.652,1500,-0.11674863,-0.09324176,-0.0228489,37.1563870811966
11.662,1500,-0.00074863,-0.04124176,0.0021511,37.1563870811966
11.672,1500,-0.01174863,-0.02424176,-0.0148489,37.1563870811966
11.682,1500,-0.02674863,-0.03024176,0.0071511,37.1563870811966
11.692,1500,-0.01174863,-0.01324176,-0.0208489,37.1563870811966
11.701,1500,0.02325137,-0.01624176,-0.0188489,37.1563870811966
11.712,1500,-0.01474863,-0.02524176,0.0121511,37.1563870811966
11.722,1500,-0.04174863,-0.00124176,0.0001511,37.1563870811966
11.731,1500,0.01525137,0.00275824,-0.0348489,37.1563870811966
11.742,1500,-0.04574863,-0.03424176,-0.0098489,37.1563870811966
11.752,1500,-0.02974863,-0.00524176,-0.0008489,37.1563870811966
11.762,1500,0.05125137,0.01575824,0.0031511,37.1563870811966
11.772,1500,0.04225137,-0.00624176,-0.0308489,37.1563870811966
11.782,1500,-0.01074863,-0.01024176,-0.0328489,37.1563870811966
11.793,1500,-0.03074863,-0.02024176,-0.0158489,37.1563870811966
11.803,1500,0.01825137,-0.00724176,0.0021511,37.1563870811966
11.813,1500,-0.07074863,0.00475824,-0.0048489,37.1563870811966
11.823,1500,0.00425137,0.01075824,0.0561511,37.1563870811966
11.833,1500,-0.11374863,0.00475824,-0.0068489,37.1563870811966
11.843,1500,-0.03874863,0.02475824,0.0201511,37.1563870811966
11.852,1500,-0.08474863,-0.03524176,0.0051511,37.1563870811966
11.862,1500,0.05425137,0.02375824,0.0221511,37.1563870811966
11.872,1500,0.04325137,0.00875824,-0.0188489,37.1563870811966
11.882,1500,0.01925137,0.00375824,0.0071511,37.1563870811966
11.892,1500,-0.07674863,0.01775824,0.0021511,37.1563870811966
11.902,1500,0.00125137,0.01675824,0.0031511,37.1563870811966
11.912,1500,-0.03074863,-0.00424176,-0.0078489,37.1563870811966
11.923,1500,-0.06374863,0.02375824,-0.0108489,37.1563870811966
11.933,1500,0.00225137,0.02375824,-0.0038489,37.1563870811966
11.943,1500,-0.05774863,-0.01124176,-0.0118489,37.1563870811966
11.952,1500,-0.04874863,0.01175824,-0.0178489,37.1563870811966
11.962,1500,-0.05674863,-0.01624176,-0.0078489,37.1563870811966
11.972,1500,0.03325137,-0.01624176,0.0081511,37.1563870811966
11.982,1500,0.03225137,0.01275824,-0.0348489,37.1563870811966
11.992,1500,0.05425137,-0.00624176,-0.0258489,37.1563870811966
12.002,1500,-0.02374863,-0.01324176,-0.0168489,37.1563870811966
12.012,1500,-0.04174863,0.00575824,-0.0378489,37.1563870811966
12.021,1500,-0.05774863,-0.00124176,-0.0008489,37.1563870811966
12.032,1500,-0.05274863,-0.02724176,0.0211511,37.1563870811966
12.042,1500,0.04425137,0.02575824,0.0251511,37.1563870811966
12.052,1500,-0.10674863,0.01375824,0.0071511,37.1563870811966
12.062,1500,0.05125137,0.00275824,-0.0118489,37.1563870811966
12.072,1500,0.10125137,0.01375824,0.0031511,37.1563870811966
12.082,1500,-0.03474863,-0.02524176,0.0161511,37.1563870811966
12.092,1500,-0.02374863,-0.00724176,-0.0188489,37.1563870811966
12.102,1500,-0.04174863,0.01475824,0.0261511,37.1563870811966
12.111,1500,-0.03974863,0.01075824,-0.0078489,37.1563870811966
12.122,1500,-0.00574863,0.00875824,-0.0018489,37.1563870811966
12.132,1500,-0.06574863,-0.01024176,-0.0048489,37.1563870811966
12.142,1500,0.08425137,-0.00824176,-0.0058489,131.231922825264
12.152,1500,0.05525137,0.01875824,-0.0168489,131.231922825264
12.162,1500,-0.07774863,-0.01724176,-0.0138489,131.231922825264
12.172,1500,-0.02974863,0.02575824,-0.0218489,131.231922825264
12.182,1500,0.02425137,0.02775824,0.0231511,131.231922825264
12.192,1500,-0.00674863,-0.01824176,0.0091511,131.231922825264
12.202,1500,0.03225137,0.01275824,0.0111511,131.231922825264
12.212,1500,0.02225137,0.04975824,-0.0168489,131.231922825264
12.222,1500,-0.04774863,-0.00924176,-0.0368489,131.231922825264
12.232,1500,-0.03974863,0.00475824,-0.0098489,131.231922825264
12.242,1500,-0.00274863,0.02275824,-0.0058489,131.231922825264
12.252,1500,0.02625137,-0.01624176,0.0291511,131.231922825264
12.262,1500,0.03125137,-0.01024176,-0.0158489,131.231922825264
12.272,1500,0.01725137,0.00975824,-0.0278489,131.231922825264
12.282,1500,0.00325137,-0.00524176,-0.0078489,131.231922825264
12.292,1500,-0.03074863,0.00475824,-0.0058489,131.231922825264
12.303,1500,-0.03174863,0.01475824,0.0441511,131.231922825264
12.312,1500,-0.00974863,0.00075824,0.0311511,131.231922825264
12.322,1500,-0.01074863,-0.01324176,-0.0178489,131.231922825264
12.332,1500,0.01225137,0.03175824,0.0081511,131.231922825264
12.342,1500,-0.01774863,0.05075824,-0.0228489,131.231922825264
12.352,1500,0.01525137,0.05275824,-0.0098489,131.231922825264
12.362,1500,0.00325137,0.08175824,-0.0148489,131.231922825264
12.372,1500,0.02525137,0.08375824,-0.0148489,131.231922825264
12.382,1500,0.08325137,0.09875824,-0.0028489,131.231922825264
12.392,1500,0.10125137,0.12475824,0.0021511,131.231922825264
12.402,1500,0.09525137,0.13075824,-0.0038489,131.231922825264
12.413,1500,0.05425137,0.11475824,-0.0128489,131.231922825264
12.422,1500,0.05125137,0.08975824,-0.0038489,131.231922825264
12.432,1500,0.04825137,0.07175824,0.0041511,131.231922825264
12.442,1500,0.02725137,0.05175824,-0.0068489,131.231922825264
12.452,1500,0.02125137,0.04275824,0.0001511,131.231922825264
12.462,1500,0.02925137,0.03675824,0.0041511,131.231922825264
12.472,1500,0.00725137,0.03075824,-0.0038489,131.231922825264
12.482,1500,0.00825137,0.01775824,0.0061511,131.231922825264
12.493,1500,0.00825137,0.00775824,-0.0028489,131.231922825264
12.502,1500,-0.00774863,0.01075824,-0.0078489,131.231922825264
12.512,1500,-0.00874863,0.01075824,-0.0078489,131.231922825264
12.522,1500,0.00425137,0.01375824,-0.0038489,131.231922825264
12.532,1500,-0.00474863,0.00075824,-0.0028489,131.231922825264
12.542,1500,-0.00674863,-0.00124176,-0.0018489,131.231922825264
12.552,1500,-0.01574863,-0.01224176,0.0021511,131.231922825264
12.562,1500,-0.02374863,-0.03524176,0.0031511,131.231922825264
12.573,1500,-0.02874863,-0.06024176,0.0041511,131.231922825264
12.582,1500,-0.03174863,-0.08224176,0.0051511,131.231922825264
12.592,1500,-0.02474863,-0.10324176,0.0081511,131.231922825264
12.602,1500,-0.03674863,-0.11624176,0.0171511,131.231922825264
12.612,1500,-0.05574863,-0.12924176,0.0321511,131.231922825264
12.622,1500,-0.05774863,-0.15224176,0.0021511,131.231922825264
12.632,1500,-0.03074863,-0.11424176,0.0071511,131.231922825264
12.642,1500,-0.08174863,-0.10324176,-0.0008489,131.231922825264
12.652,1500,-0.06674863,-0.09424176,0.0051511,131.231922825264
12.663,1500,-0.04674863,-0.08824176,0.0001511,75.6160489028748
12.673,1500,-0.03474863,-0.07424176,-0.0018489,75.6160489028748
12.683,1500,-0.01374863,-0.03924176,-0.0028489,75.6160489028748
12.693,1500,-0.01174863,-0.04224176,0.0121511,75.6160489028748
12.703,1500,0.00225137,-0.02124176,0.0191511,75.6160489028748
12.712,1500,0.01325137,0.00975824,0.0141511,75.6160489028748
12.722,1500,-0.00574863,-0.00524176,-0.0068489,75.6160489028748
12.732,1500,-0.04674863,0.00575824,-0.0238489,75.6160489028748
12.742,1500,-0.07374863,0.00875824,-0.0148489,75.6160489028748
12.753,1500,-0.05774863,-0.01824176,0.0041511,75.6160489028748
12.763,1500,0.01925137,0.01375824,-0.0008489,75.6160489028748
12.773,1500,-0.01174863,0.02075824,0.0071511,75.6160489028748
12.782,1500,-0.02474863,0.01075824,0.0131511,75.6160489028748
12.792,1500,0.03525137,0.01375824,-0.0068489,75.6160489028748
12.802,1500,0.00425137,0.00275824,0.0251511,75.6160489028748
12.812,1500,-0.07674863,-0.01924176,-0.0338489,75.6160489028748
12.823,1500,-0.02874863,0.01275824,-0.0738489,75.6160489028748
12.832,1500,-0.03774863,0.00775824,0.0021511,75.6160489028748
12.842,1500,-0.03174863,-0.02124176,0.0051511,75.6160489028748
12.852,1500,-0.05774863,-0.00924176,0.0081511,75.6160489028748
12.862,1500,-0.03074863,-0.00824176,0.0241511,75.6160489028748
12.873,1500,-0.02974863,0.01275824,0.0271511,75.6160489028748
12.882,1500,0.03425137,0.00975824,0.0041511,75.6160489028748
12.893,1500,-0.03574863,0.01475824,0.0281511,75.6160489028748
12.903,1500,-0.05374863,0.02275824,0.0091511,75.6160489028748
12.912,1500,0.00625137,0.01375824,-0.0028489,75.6160489028748
12.922,1500,0.07025137,-0.01824176,0.0281511,75.6160489028748
12.932,1500,0.02725137,0.01975824,-0.0018489,75.6160489028748
12.943,1500,-0.02174863,0.02875824,-0.0308489,75.6160489028748
12.953,1500,-0.05774863,0.02075824,-0.0038489,75.6160489028748
12.963,1500,-0.00874863,-0.00124176,-0.0368489,75.6160489028748
12.973,1500,-0.02974863,-0.00324176,0.0091511,75.6160489028748
12.983,1500,-0.03074863,-0.01924176,0.0001511,75.6160489028748
12.993,1500,0.12025137,0.03275824,-0.0028489,75.6160489028748
13.002,1500,-0.01874863,-0.00524176,-0.0198489,75.6160489028748
13.012,1500,-0.00674863,-0.00924176,-0.0328489,75.6160489028748
13.022,1500,0.02425137,0.03375824,0.0111511,75.6160489028748
13.032,1500,-0.05974863,-0.01924176,-0.0698489,75.6160489028748
13.043,1500,-0.04274863,0.00275824,-0.0158489,75.6160489028748
13.053,1500,0.00525137,0.01775824,0.0051511,75.6160489028748
13.063,1500,-0.01574863,-0.01524176,-0.0178489,75.6160489028748
13.073,1500,0.00125137,0.03375824,0.0071511,75.6160489028748
13.083,1500,-0.00374863,0.02675824,-0.0018489,75.6160489028748
13.093,1500,0.00025137,-0.00224176,0.0091511,75.6160489028748
13.102,1500,-0.01574863,0.01375824,0.0301511,75.6160489028748
13.112,1500,0.01925137,0.01775824,0.0321511,75.6160489028748
13.123,1500,-0.01874863,0.00275824,0.0021511,75.6160489028748
13.132,1500,-0.01974863,0.02075824,-0.0168489,75.6160489028748
13.142,1500,0.02625137,0.05075824,0.1091511,75.6160489028748
13.153,1500,-0.05274863,-0.02824176,0.0041511,75.6160489028748
13.162,1500,0.04325137,0.01275824,-0.0008489,75.6160489028748
13.172,1500,0.04825137,-0.02124176,-0.0188489,75.6160489028748
13.183,1500,-0.02474863,0.01875824,-0.0018489,144.202475357593
13.192,1500,-0.00074863,0.03275824,-0.0158489,144.202475357593
13.203,1500,-0.05474863,-0.00424176,0.0021511,144.202475357593
13.213,1500,-0.05274863,-0.02824176,-0.0678489,144.202475357593
13.222,1500,0.01825137,0.01275824,0.0241511,144.202475357593
13.233,1500,0.00525137,0.00875824,0.0131511,144.202475357593
13.243,1500,0.02425137,0.04275824,0.0041511,144.202475357593
13.252,1500,-0.06674863,0.00475824,-0.0698489,144.202475357593
13.263,1500,-0.01074863,-0.00124176,-0.0148489,144.202475357593
13.272,1500,0.00625137,0.00275824,-0.0108489,144.202475357593
13.282,1500,-0.05974863,0.01575824,0.0181511,144.202475357593
13.293,1500,-0.00274863,0.07075824,0.0241511,144.202475357593
13.302,1500,-0.03174863,0.06975824,0.0001511,144.202475357593
13.312,1500,0.04325137,0.08675824,-0.0038489,144.202475357593
13.323,1500,-0.02574863,0.08375824,-0.0138489,144.202475357593
13.332,1500,0.07025137,0.12775824,0.0211511,144.202475357593
13.342,1500,0.11025137,0.13275824,0.0151511,144.202475357593
13.353,1500,0.09925137,0.13375824,0.0041511,144.202475357593
13.362,1500,0.07825137,0.11375824,-0.0098489,144.202475357593
13.373,1500,0.06725137,0.10575824,-0.0128489,144.202475357593
13.383,1500,0.04225137,0.08175824,0.0041511,144.202475357593
13.392,1500,0.03325137,0.07275824,-0.0008489,144.202475357593
13.403,1500,0.04425137,0.06375824,-0.0028489,144.202475357593
13.413,1500,0.02325137,0.05075824,-0.0048489,144.202475357593
13.422,1500,0.00225137,0.03275824,-0.0038489,144.202475357593
13.433,1500,0.00825137,0.01675824,-0.0028489,144.202475357593
13.443,1500,-0.00574863,0.01275824,-0.0008489,144.202475357593
13.452,1500,0.00025137,0.00675824,-0.0018489,144.202475357593
13.463,1500,0.00925137,0.00775824,-0.0028489,144.202475357593
13.472,1500,0.00525137,0.01175824,-0.0078489,144.202475357593
13.482,1500,0.00025137,0.01175824,-0.0008489,144.202475357593
13.493,1500,0.00425137,-0.00624176,-0.0008489,144.202475357593
13.502,1500,-0.00674863,-0.02924176,0.0051511,144.202475357593
13.512,1500,-0.02474863,-0.04924176,0.0061511,144.202475357593
13.523,1500,-0.02474863,-0.06824176,0.0131511,144.202475357593
13.532,1500,-0.04574863,-0.09924176,0.0131511,144.202475357593
13.543,1500,-0.05074863,-0.11824176,0.0041511,144.202475357593
13.553,1500,-0.06474863,-0.14124176,0.0171511,144.202475357593
13.562,1500,-0.08274863,-0.15924176,0.0041511,144.202475357593
13.573,1500,-0.09974863,-0.15724176,-0.0178489,144.202475357593
13.582,1500,-0.06174863,-0.14024176,0.0161511,144.202475357593
13.593,1500,-0.07974863,-0.13024176,-0.0188489,144.202475357593
13.603,1500,-0.14274863,-0.07024176,-0.0168489,144.202475357593
13.613,1500,0.06725137,-0.06824176,0.0031511,144.202475357593
13.622,1500,-0.04974863,-0.08824176,-0.0338489,144.202475357593
13.633,1500,-0.01674863,-0.02524176,-0.0398489,144.202475357593
13.642,1500,0.14125137,0.03075824,0.0211511,144.202475357593
13.653,1500,0.00525137,-0.02624176,-0.0288489,144.202475357593
13.663,1500,0.08125137,0.06775824,0.1441511,144.202475357593
13.672,1500,-0.04274863,-0.04324176,0.0441511,144.202475357593
13.683,1500,0.10825137,-0.04224176,0.0261511,144.202475357593
13.693,1500,-0.06174863,0.01275824,0.0711511,144.202475357593
13.702,1500,-0.09274863,0.01075824,0.0081511,85.8182484143611
13.713,1500,-0.35974863,-0.11124176,-0.0338489,85.8182484143611
13.723,1500,-0.17074863,0.02375824,0.0141511,85.8182484143611
13.733,1500,-0.13474863,0.00175824,-0.0878489,85.8182484143611
13.743,1500,-0.19374863,-0.10524176,-0.3668489,85.8182484143611
13.753,1500,-0.09674863,-0.07624176,-0.2888489,85.8182484143611
13.763,1500,-0.11674863,-0.03724176,-0.2568489,85.8182484143611
13.773,1500,-0.18074863,-0.05524176,-0.2548489,85.8182484143611
13.783,1500,0.22425137,0.10275824,0.0651511,85.8182484143611
13.793,1500,0.21325137,0.06775824,0.0171511,85.8182484143611
13.803,1500,0.05025137,-0.02524176,-0.0988489,85.8182484143611
13.813,1500,0.11425137,0.04775824,0.0981511,85.8182484143611
13.824,1500,0.05725137,0.02575824,0.1771511,85.8182484143611
13.833,1500,0.07125137,0.01575824,0.1691511,85.8182484143611
13.843,1500,-0.02474863,0.00375824,0.0431511,85.8182484143611
13.853,1500,-0.08474863,-0.00424176,0.0561511,85.8182484143611
13.863,1500,0.06825137,0.04475824,0.0871511,85.8182484143611
13.873,1500,0.13825137,0.01075824,0.0351511,85.8182484143611
13.884,1500,-0.02374863,0.01075824,0.0601511,85.8182484143611
13.894,1500,-0.04874863,0.10575824,0.2001511,85.8182484143611
13.903,1500,-0.23374863,0.00375824,0.1481511,85.8182484143611
13.913,1500,0.10125137,0.00175824,0.1511511,85.8182484143611
13.923,1500,0.10225137,0.07475824,0.2261511,85.8182484143611
13.933,1500,0.03725137,-0.00724176,0.1261511,85.8182484143611
13.943,1500,-0.34474863,-0.08724176,-0.0168489,85.8182484143611
13.953,1500,0.11525137,0.05275824,0.0901511,85.8182484143611
13.963,1500,-0.02174863,-0.02824176,-0.0498489,85.8182484143611
13.973,1500,-0.17274863,-0.03724176,-0.1358489,85.8182484143611
13.983,1500,-0.25674863,-0.01024176,-0.0378489,85.8182484143611
13.993,1500,-0.06174863,-0.02124176,-0.0468489,85.8182484143611
14.004,1500,-0.14374863,-0.06424176,-0.2098489,85.8182484143611
14.014,1500,-0.05074863,-0.03424176,-0.2738489,85.8182484143611
14.023,1500,0.11725137,0.04175824,-0.1178489,85.8182484143611
14.033,1500,-0.04774863,-0.07024176,-0.1308489,85.8182484143611
14.044,1500,0.07225137,-0.00724176,-0.0518489,85.8182484143611
14.053,1500,0.26225137,0.11675824,0.2051511,85.8182484143611
14.063,1500,0.28625137,0.04675824,0.0521511,85.8182484143611
14.073,1500,0.12525137,0.03675824,0.0101511,85.8182484143611
14.082,1500,0.03225137,0.07975824,0.2361511,85.8182484143611
14.093,1500,0.04625137,0.05475824,0.2941511,85.8182484143611
14.103,1500,0.23225137,0.03075824,0.0321511,85.8182484143611
14.113,1500,0.01625137,-0.00824176,0.0091511,85.8182484143611
14.123,1500,0.04925137,0.05475824,0.1241511,85.8182484143611
14.133,1500,-0.11874863,0.01275824,0.0811511,85.8182484143611
14.143,1500,0.01225137,-0.01724176,0.0361511,85.8182484143611
14.153,1500,-0.02674863,0.04975824,0.0221511,85.8182484143611
14.163,1500,-0.09174863,0.05175824,-0.0018489,85.8182484143611
14.173,1500,0.05325137,0.13875824,-0.0438489,85.8182484143611
14.183,1500,0.04925137,0.09075824,-0.0778489,85.8182484143611
14.193,1500,-0.02574863,0.02575824,-0.1688489,85.8182484143611
14.203,1500,0.06625137,0.15675824,-0.0558489,85.8182484143611
14.213,1500,0.16125137,0.19375824,0.1061511,85.8182484143611
14.223,1500,0.11725137,0.12675824,0.0191511,141.110536772607
14.233,1500,0.06225137,0.12875824,-0.0168489,141.110536772607
14.243,1500,0.07625137,0.12675824,-0.0168489,141.110536772607
14.253,1500,0.06625137,0.10075824,-0.0188489,141.110536772607
14.263,1500,0.05625137,0.08075824,-0.0238489,141.110536772607
14.273,1500,0.04725137,0.06975824,-0.0178489,141.110536772607
14.283,1500,0.04325137,0.05875824,-0.0108489,141.110536772607
14.294,1500,0.02625137,0.03975824,-0.0038489,141.110536772607
14.303,1500,0.00525137,0.01975824,-0.0048489,141.110536772607
14.313,1500,0.00425137,0.02775824,-0.0058489,141.110536772607
14.323,1500,-0.00674863,0.00975824,-0.0018489,141.110536772607
14.333,1500,-0.00574863,0.00375824,0.0031511,141.110536772607
14.343,1500,0.00625137,0.01075824,0.0011511,141.110536772607
14.354,1500,-0.00074863,0.01375824,0.0001511,141.110536772607
14.364,1500,0.00325137,0.00375824,0.0021511,141.110536772607
14.373,1500,0.00425137,-0.00424176,-0.0018489,141.110536772607
14.383,1500,-0.00174863,0.00675824,-0.0018489,141.110536772607
14.393,1500,-0.00474863,0.00575824,-0.0018489,141.110536772607
14.403,1500,0.00325137,0.00075824,0.0041511,141.110536772607
14.413,1500,0.00625137,0.00375824,-0.0008489,141.110536772607
14.424,1500,-0.00074863,0.00275824,-0.0038489,141.110536772607
14.433,1500,0.00125137,0.00375824,-0.0028489,141.110536772607
14.443,1500,0.00225137,-0.00024176,0.0031511,141.110536772607
14.453,1500,0.00225137,0.00075824,0.0001511,141.110536772607
14.463,1500,0.00625137,0.00675824,0.0001511,141.110536772607
14.473,1500,0.00025137,0.00875824,-0.0018489,141.110536772607
14.483,1500,-0.00074863,0.00275824,0.0001511,141.110536772607
14.493,1500,0.00225137,-0.00024176,0.0011511,141.110536772607
14.503,1500,-0.00374863,0.00475824,-0.0018489,141.110536772607
14.513,1500,-0.00374863,0.00575824,-0.0038489,141.110536772607
14.523,1500,0.00725137,0.00175824,0.0001511,141.110536772607
14.534,1500,0.00925137,0.00175824,-0.0028489,141.110536772607
14.544,1500,0.00425137,0.00275824,0.0001511,141.110536772607
14.554,1500,0.00125137,0.00075824,-0.0068489,141.110536772607
14.563,1500,0.00225137,0.00075824,0.0021511,141.110536772607
14.573,1500,0.00625137,0.00275824,-0.0018489,141.110536772607
14.583,1500,0.00725137,0.00275824,-0.0078489,141.110536772607
14.593,1500,0.00725137,0.00775824,0.0001511,141.110536772607
14.603,1500,-0.00074863,0.00475824,-0.0008489,141.110536772607
14.613,1500,-0.00074863,-0.00224176,0.0041511,141.110536772607
14.623,1500,0.00025137,0.00575824,0.0001511,141.110536772607
14.633,1500,0.00225137,0.00475824,0.0001511,141.110536772607
14.643,1500,0.00125137,0.00375824,0.0021511,141.110536772607
14.653,1500,-0.00174863,-0.00124176,0.0001511,141.110536772607
14.663,1500,0.00025137,0.00275824,-0.0038489,141.110536772607
14.673,1500,-0.00274863,0.00475824,-0.0028489,141.110536772607
14.684,1500,0.00625137,-0.00024176,0.0001511,141.110536772607
14.693,1500,0.00825137,0.00575824,-0.0008489,141.110536772607
14.703,1500,0.00425137,0.00775824,-0.0068489,141.110536772607
14.713,1500,0.00425137,-0.00024176,-0.0008489,141.110536772607
14.723,1500,0.00525137,-0.00124176,0.0021511,141.110536772607
14.733,1500,-0.00374863,0.00375824,0.0011511,141.110536772607
14.743,1500,0.00225137,0.00475824,0.0011511,0
14.753,1500,0.00225137,-0.00024176,0.0031511,0
14.763,1500,0.00125137,0.00575824,0.0011511,0
14.773,1500,0.00625137,0.00375824,0.0031511,0
14.783,1500,0.00125137,0.00075824,-0.0028489,0
14.793,1500,0.00625137,0.00375824,0.0021511,0
14.803,1500,0.00525137,0.00575824,0.0061511,0
14.814,1500,0.00525137,0.00275824,-0.0008489,0
14.824,1500,-0.00074863,0.00675824,0.0001511,0
14.834,1500,-0.00374863,0.00475824,-0.0018489,0
14.844,1500,-0.00174863,0.00075824,0.0041511,0
14.854,1500,-0.00174863,0.00375824,-0.0028489,0
14.864,1500,-0.00074863,0.01275824,0.0001511,0
14.873,1500,0.00625137,0.00575824,-0.0018489,0
14.883,1500,0.00125137,-0.00424176,-0.0018489,0
14.893,1500,0.00325137,0.00275824,-0.0028489,0
14.903,1500,0.00325137,0.00575824,-0.0018489,0
14.913,1500,0.00625137,-0.00024176,-0.0008489,0
14.923,1500,0.00325137,0.00475824,-0.0028489,0
14.933,1500,0.00325137,0.01075824,-0.0048489,0
14.943,1500,0.00225137,-0.00024176,-0.0028489,0
14.954,1500,-0.00174863,0.00075824,0.0001511,0
14.964,1500,-0.00174863,0.00275824,0.0001511,0
14.974,1500,0.00425137,0.00475824,0.0031511,0
14.983,1500,-0.00074863,-0.00024176,0.0031511,0
14.993,1500,0.00225137,0.00475824,-0.0008489,0
15.003,1500,0.00125137,0.00375824,-0.0028489,0
15.013,1500,0.00825137,-0.00024176,-0.0028489,0
15.023,1500,0.00625137,0.00375824,-0.0058489,0
15.033,1500,0.00925137,0.00875824,-0.0038489,0
15.043,1500,0.00225137,0.00275824,-0.0038489,0
15.053,1500,0.00125137,0.00075824,-0.0018489,0
15.063,1500,-0.00274863,0.00875824,0.0011511,0
15.073,1500,0.00325137,0.00475824,0.0061511,0
15.083,1500,0.00125137,0.00275824,0.0021511,0
15.093,1500,-0.00074863,0.00575824,-0.0018489,0
15.103,1500,0.00125137,0.00375824,0.0021511,0
15.113,1500,0.00625137,-0.00024176,-0.0068489,0
15.124,1500,0.00425137,0.00375824,0.0001511,0
15.134,1500,0.00725137,0.00675824,0.0011511,0
15.144,1500,0.00325137,0.00275824,-0.0028489,0
15.154,1500,0.00325137,0.00275824,0.0021511,0
15.164,1500,0.00525137,0.00575824,-0.0068489,0
15.173,1500,0.00425137,-0.00324176,-0.0048489,0
15.183,1500,0.00325137,0.00175824,0.0031511,0
15.193,1500,-0.00074863,0.00575824,0.0011511,0
15.203,1500,0.00225137,0.00575824,-0.0078489,0
15.213,1500,-0.00174863,-0.00124176,0.0011511,0
15.223,1500,-0.00674863,0.00875824,-0.0008489,0
15.233,1500,0.00325137,0.00175824,-0.0018489,0
15.243,1500,0.00625137,0.00375824,-0.0018489,0
15.253,1500,0.00725137,0.00475824,-0.0008489,0
15.263,1500,0.00825137,0.00975824,-0.0058489,0
15.273,1500,0.00525137,0.00275824,0.0031511,0
15.283,1500,0.00025137,0.00475824,-0.0028489,0
15.293,1500,0.00125137,0.00675824,0.0001511,0
15.304,1500,-0.00074863,0.00275824,-0.0048489,0
15.313,1500,-0.00374863,0.00175824,-0.0008489,0
15.323,1500,-0.00074863,-0.00124176,0.0021511,0
15.333,1500,0.00025137,0.00275824,-0.0018489,0
15.343,1500,0.00025137,0.00675824,-0.0008489,0
15.353,1500,0.00525137,0.00675824,-0.0058489,0
15.363,1500,0.00325137,0.00275824,0.0041511,0
15.374,1500,0.00425137,0.00275824,-0.0058489,0
15.383,1500,0.00525137,-0.00124176,-0.0028489,0
15.394,1500,0.00525137,0.00675824,-0.0058489,0
15.404,1500,0.00325137,0.00275824,0.0011511,0
15.414,1500,0.00525137,-0.00024176,-0.0018489,0
15.424,1500,0.00325137,0.00675824,0.0001511,0
15.434,1500,-0.00474863,0.00275824,-0.0018489,0
15.443,1500,0.00325137,-0.00024176,0.0051511,0
15.453,1500,-0.00574863,0.00375824,0.0021511,0
15.463,1500,-0.00274863,0.00575824,-0.0008489,0
15.473,1500,0.00925137,0.00375824,0.0031511,0
15.484,1500,0.00525137,0.00575824,0.0001511,0
15.494,1500,0.00525137,0.00475824,-0.0058489,0
15.504,1500,0.00025137,0.00675824,0.0001511,0
15.514,1500,0.00325137,0.00575824,-0.0048489,0
15.523,1500,0.00725137,0.00075824,0.0051511,0
15.534,1500,-0.00474863,0.00375824,-0.0058489,0
15.543,1500,-0.00274863,0.00375824,0.0001511,0
15.553,1500,-0.00274863,0.00575824,-0.0008489,0
15.563,1500,0.00225137,0.00275824,0.0031511,0
15.573,1500,-0.00074863,0.00575824,-0.0068489,0
15.584,1500,0.00225137,0.00675824,-0.0038489,0
15.593,1500,0.00525137,0.00275824,0.0051511,0
15.604,1500,0.00325137,0.00275824,-0.0018489,0
15.614,1500,0.00425137,0.00175824,-0.0118489,0
15.623,1500,0.00225137,0.00475824,-0.0018489,0
15.633,1500,0.00525137,0.00275824,-0.0008489,0
15.644,1500,0.00025137,0.00275824,0.0021511,0
15.653,1500,-0.00074863,0.00375824,-0.0038489,0
15.664,1500,0.00025137,0.00675824,0.0021511,0
15.673,1500,0.00225137,0.00175824,0.0031511,0
15.684,1500,0.00225137,0.00375824,0.0051511,0
15.693,1500,-0.00274863,0.00675824,0.0001511,0
15.703,1500,0.00025137,0.00475824,0.0041511,0
15.714,1500,0.00625137,-0.00524176,-0.0038489,0
15.723,1500,-0.00174863,0.00275824,-0.0008489,0
15.734,1500,-0.00074863,0.00775824,-0.0048489,0
15.743,1500,0.00525137,-0.00124176,0.0021511,0
15.753,1500,0.00325137,0.00075824,0.0011511,0
15.763,1500,0.00325137,0.00575824,-0.0018489,0
15.774,1500,-0.00474863,0.00375824,-0.0028489,0
15.783,1500,-0.00174863,0.00275824,0.0011511,0
15.793,1500,0.00125137,0.00775824,-0.0028489,0
15.804,1500,-0.00074863,0.00675824,-0.0018489,0
15.813,1500,-0.00074863,0.00575824,-0.0018489,0
15.824,1500,0.00025137,0.00275824,-0.0018489,0
15.833,1500,0.00825137,0.00075824,0.0041511,0
15.844,1500,0.00025137,0.00375824,-0.0058489,0
15.853,1500,0.00225137,0.00375824,0.0041511,0
15.863,1500,0.00425137,0.00375824,0.0011511,0
15.874,1500,0.00325137,0.00175824,0.0041511,0
15.883,1500,0.00425137,0.00375824,-0.0068489,0
15.894,1500,0.00125137,0.00275824,-0.0008489,0
15.903,1500,0.00225137,0.00475824,0.0021511,0
15.914,1500,-0.00074863,0.00175824,0.0041511,0
15.923,1500,0.00325137,0.00175824,-0.0048489,0
15.934,1500,-0.00674863,0.00875824,-0.0038489,0
15.944,1500,-0.00074863,0.00275824,0.0011511,0
15.953,1500,0.00525137,-0.00324176,0.0011511,0
15.964,1500,0.00225137,0.00675824,-0.0078489,0
15.973,1500,0.00125137,0.00375824,-0.0018489,0
