Time,Speed,accX,accY,accZ,velocity_magnitude
0.076,1500,0.02125137,0.00575824,0.0011511,0
0.09,1500,0.02425137,0.00875824,0.0001511,0
0.1,1500,0.02325137,0.00375824,-0.0008489,0
0.11,1500,0.02025137,0.00075824,-0.0008489,0
0.12,1500,0.02225137,0.00875824,0.0001511,0
0.13,1500,0.02125137,0.00575824,-0.0008489,0
0.14,1500,0.02325137,-0.00124176,0.0031511,0
0.15,1500,0.02525137,0.00775824,0.0001511,0
0.16,1500,0.02125137,0.00775824,-0.0058489,0
0.17,1500,0.02025137,0.00375824,-0.0038489,0
0.18,1500,0.02625137,0.00375824,-0.0008489,0
0.19,1500,0.02425137,0.00675824,-0.0008489,0
0.2,1500,0.01925137,0.00375824,0.0011511,0
0.21,1500,0.02125137,0.00575824,-0.0048489,0
0.22,1500,0.02525137,0.00375824,-0.0008489,0
0.231,1500,0.02425137,0.00775824,-0.0038489,0
0.241,1500,0.01825137,0.00675824,-0.0048489,0
0.251,1500,0.02525137,0.00475824,0.0021511,0
0.261,1500,0.02325137,0.00275824,0.0031511,0
0.271,1500,0.01925137,0.00275824,-0.0038489,0
0.281,1500,0.02325137,0.00875824,-0.0048489,0
0.29,1500,0.02425137,0.00575824,0.0021511,0
0.3,1500,0.02225137,0.00375824,0.0031511,0
0.31,1500,0.02325137,0.00475824,-0.0038489,0
0.32,1500,0.02125137,0.00775824,-0.0018489,0
0.33,1500,0.02225137,0.00275824,-0.0008489,0
0.34,1500,0.02225137,0.00375824,-0.0018489,0
0.35,1500,0.02325137,0.00975824,-0.0018489,0
0.36,1500,0.02225137,0.00875824,-0.0018489,0
0.37,1500,0.02225137,0.00375824,-0.0038489,0
0.38,1500,0.02225137,0.00375824,-0.0018489,0
0.389,1500,0.02225137,0.00975824,-0.0008489,0
0.4,1500,0.02325137,0.00575824,-0.0018489,0
0.41,1500,0.02225137,0.00175824,0.0001511,0
0.42,1500,0.02225137,0.00775824,0.0011511,0
0.43,1500,0.02125137,0.00475824,-0.0048489,0
0.44,1500,0.02225137,0.00875824,-0.0008489,0
0.45,1500,0.02425137,0.00575824,-0.0018489,0
0.46,1500,0.02325137,0.00275824,-0.0008489,0
0.47,1500,0.02325137,0.00675824,0.0001511,0
0.481,1500,0.02025137,0.00475824,-0.0028489,0
0.49,1500,0.02325137,0.00475824,0.0031511,0
0.5,1500,0.02325137,0.00475824,-0.0008489,0
0.51,1500,0.02125137,0.00675824,-0.0038489,0
0.52,1500,0.02225137,0.00575824,-0.0008489,0
0.53,1500,0.02125137,0.00575824,-0.0018489,0
0.54,1500,0.01925137,0.00575824,-0.0038489,0
0.551,1500,0.02125137,0.00575824,0.0001511,0
0.56,1500,0.02225137,0.00975824,0.0011511,0
0.57,1500,0.02225137,0.00375824,0.0021511,0
0.581,1500,0.02425137,0.00475824,-0.0008489,0
0.591,1500,0.02425137,0.00875824,-0.0008489,0
0.601,1500,0.02225137,0.00475824,-0.0018489,0
0.611,1500,0.02125137,0.00175824,-0.0008489,0
0.62,1500,0.02425137,0.00875824,-0.0018489,0
0.63,1500,0.02125137,0.00875824,-0.0018489,0
0.64,1500,0.02025137,0.00475824,-0.0018489,0
0.65,1500,0.02125137,0.00575824,-0.0008489,0
0.66,1500,0.02125137,0.00475824,0.0001511,0
0.67,1500,0.02425137,0.00275824,-0.0018489,0
0.68,1500,0.02325137,0.00275824,0.0011511,0
0.69,1500,0.02425137,0.00675824,0.0031511,0
0.7,1500,0.02225137,0.00475824,0.0001511,0
0.71,1500,0.02225137,0.00475824,-0.0008489,0
0.72,1500,0.02325137,0.00675824,0.0001511,0
0.73,1500,0.02325137,0.00375824,-0.0018489,0
0.74,1500,0.02025137,0.00475824,0.0011511,0
0.751,1500,0.02225137,0.00675824,0.0001511,0
0.76,1500,0.02425137,0.00675824,-0.0018489,0
0.77,1500,0.02125137,0.00575824,0.0011511,0
0.78,1500,0.01825137,0.00675824,-0.0008489,0
0.79,1500,0.02125137,0.00675824,-0.0018489,0
0.8,1500,0.02225137,0.00775824,0.0001511,0
0.81,1500,0.02025137,0.00475824,-0.0018489,0
0.82,1500,0.02225137,0.00575824,0.0021511,0
0.83,1500,0.02325137,0.00675824,0.0031511,0
0.84,1500,0.02125137,0.00475824,-0.0038489,0
0.85,1500,0.02425137,0.00875824,0.0001511,0
0.86,1500,0.02225137,0.00575824,-0.0008489,0
0.871,1500,0.02225137,0.00475824,0.0011511,0
0.88,1500,0.02425137,0.00475824,-0.0028489,0
0.89,1500,0.02525137,0.00475824,-0.0008489,0
0.9,1500,0.02325137,0.00475824,-0.0008489,0
0.91,1500,0.02225137,0.00375824,0.0031511,0
0.92,1500,0.02125137,0.00575824,-0.0038489,0
0.93,1500,0.02225137,0.00675824,0.0001511,0
0.941,1500,0.02325137,0.00175824,0.0011511,0
0.95,1500,0.02225137,0.00475824,0.0021511,0
0.96,1500,0.02225137,0.00775824,-0.0038489,0
0.97,1500,0.02325137,0.00675824,-0.0058489,0
0.98,1500,0.02125137,0.00375824,-0.0008489,0
0.99,1500,0.02325137,0.00575824,0.0011511,0
1,1500,0.02325137,0.00675824,0.0001511,0
1.011,1500,0.02125137,0.00375824,-0.0008489,0
1.02,1500,0.02225137,0.00575824,-0.0008489,0
1.031,1500,0.02525137,0.00375824,0.0001511,0
1.04,1500,0.02125137,0.00475824,-0.0018489,0
1.05,1500,0.02325137,0.00575824,-0.0018489,0
1.061,1500,0.02325137,0.00675824,0.0011511,0
1.07,1500,0.02325137,0.00275824,-0.0008489,0
1.08,1500,0.02125137,0.00475824,-0.0018489,0
1.09,1500,0.02225137,0.00775824,-0.0048489,0
1.1,1500,0.02425137,0.00575824,-0.0028489,0
1.11,1500,0.02125137,0.00475824,0.0011511,0
1.12,1500,0.02225137,0.00975824,-0.0038489,0
1.13,1500,0.02125137,0.00675824,-0.0028489,0
1.14,1500,0.02225137,0.00375824,0.0001511,0
1.15,1500,0.02325137,0.00375824,-0.0038489,0
1.16,1500,0.02325137,0.00675824,-0.0038489,0
1.171,1500,0.02225137,0.00375824,0.0001511,0
1.181,1500,0.02525137,0.00175824,0.0011511,0
1.191,1500,0.02225137,0.00775824,-0.0018489,0
1.201,1500,0.02325137,0.00575824,-0.0048489,0
1.211,1500,0.02325137,0.00275824,0.0011511,0
1.22,1500,0.02225137,0.00675824,0.0001511,0
1.23,1500,0.02325137,0.00675824,-0.0048489,0
1.24,1500,0.01925137,0.00475824,-0.0018489,0
1.25,1500,0.02225137,0.00475824,0.0031511,0
1.26,1500,0.02625137,0.00375824,0.0021511,0
1.27,1500,0.02325137,0.00575824,0.0011511,0
1.28,1500,0.02125137,0.00575824,-0.0028489,0
1.29,1500,0.02225137,0.00875824,-0.0008489,0
1.3,1500,0.02425137,0.00375824,-0.0008489,0
1.31,1500,0.01825137,0.00775824,-0.0018489,0
1.32,1500,0.02225137,0.00675824,-0.0028489,0
1.33,1500,0.02625137,0.00275824,0.0011511,0
1.34,1500,0.02225137,0.00475824,0.0041511,0
1.351,1500,0.01825137,0.00875824,-0.0018489,0
1.361,1500,0.02225137,0.00475824,-0.0018489,0
1.371,1500,0.02525137,0.00175824,0.0001511,0
1.381,1500,0.02225137,0.00575824,0.0021511,0
1.391,1500,0.02025137,0.00975824,-0.0038489,0
1.4,1500,0.02525137,0.00575824,-0.0028489,0
1.41,1500,0.02325137,0.00075824,0.0021511,0
1.421,1500,0.02025137,0.00775824,-0.0018489,0
1.43,1500,0.02125137,0.00475824,-0.0058489,0
1.44,1500,0.02225137,0.00375824,0.0041511,0
1.45,1500,0.02325137,0.00075824,0.0021511,0
1.46,1500,0.02425137,0.00975824,-0.0028489,0
1.47,1500,0.01925137,0.00775824,-0.0008489,0
1.48,1500,0.02025137,0.00175824,-0.0018489,0
1.491,1500,0.02525137,0.00475824,0.0031511,0
1.501,1500,0.02325137,0.00375824,-0.0018489,0
1.511,1500,0.01925137,0.00675824,-0.0058489,0
1.521,1500,0.02325137,0.00475824,0.0021511,0
1.531,1500,0.02525137,0.00275824,0.0011511,0
1.541,1500,0.01925137,0.00675824,-0.0008489,0
1.552,1500,0.02125137,0.00675824,-0.0028489,0
1.561,1500,0.02025137,0.00275824,0.0031511,0
1.571,1500,0.02325137,0.00275824,0.0021511,0
1.58,1500,0.02425137,0.00675824,0.0021511,0
1.591,1500,0.02325137,0.00775824,-0.0028489,0
1.6,1500,0.02425137,0.00575824,0.0011511,0
1.61,1500,0.02125137,0.00375824,0.0021511,0
1.621,1500,0.02125137,0.00675824,-0.0018489,0
1.63,1500,0.02525137,0.00575824,0.0001511,0
1.641,1500,0.02325137,0.00475824,0.0021511,0
1.65,1500,0.02025137,0.00275824,-0.0018489,0
1.66,1500,0.02125137,0.00675824,-0.0018489,0
1.671,1500,0.02225137,0.00675824,0.0011511,0
1.68,1500,0.02425137,0.00275824,0.0011511,0
1.691,1500,0.02225137,0.00675824,0.0001511,0
1.701,1500,0.02325137,0.00675824,-0.0018489,0
1.711,1500,0.02325137,0.00375824,-0.0008489,0
1.721,1500,0.02425137,0.00475824,0.0021511,0
1.731,1500,0.02425137,0.00475824,0.0001511,0
1.741,1500,0.01825137,0.00675824,0.0021511,0
1.751,1500,0.02325137,0.00475824,-0.0018489,0
1.762,1500,0.02625137,0.00275824,0.0001511,0
1.771,1500,0.02225137,0.00375824,-0.0008489,0
1.781,1500,0.02125137,0.00875824,0.0001511,0
1.79,1500,0.02425137,0.00375824,0.0001511,0
1.8,1500,0.02225137,0.00475824,-0.0008489,0
1.811,1500,0.02025137,0.00575824,-0.0018489,0
1.82,1500,0.02125137,0.00475824,-0.0028489,0
1.831,1500,0.02225137,0.00475824,0.0001511,0
1.84,1500,0.02325137,0.00275824,0.0041511,0
1.85,1500,0.02225137,0.00875824,0.0001511,0
1.861,1500,0.02225137,0.00975824,-0.0038489,0
1.87,1500,0.02425137,0.00775824,0.0001511,0
1.88,1500,0.02325137,0.00475824,0.0001511,0
1.891,1500,0.02225137,0.00575824,-0.0018489,0
1.901,1500,0.02325137,0.00475824,-0.0038489,0
1.911,1500,0.02225137,0.00375824,-0.0018489,0
1.921,1500,0.02025137,0.00775824,-0.0008489,0
1.931,1500,0.02325137,0.00175824,-0.0028489,0
1.94,1500,0.02225137,0.00775824,0.0031511,0
1.951,1500,0.02125137,0.00475824,0.0021511,0
1.96,1500,0.02325137,0.00675824,0.0031511,0
1.97,1500,0.02025137,0.00775824,-0.0028489,0
1.981,1500,0.02025137,0.00575824,-0.0018489,0
1.99,1500,0.02125137,0.00375824,0.0001511,0
2.001,1500,0.02425137,0.00675824,0.0001511,0
2.011,1500,0.02025137,0.00775824,0.0011511,0
2.02,1500,0.02325137,0.00475824,-0.0008489,0
2.031,1500,0.02525137,0.00575824,0.0001511,0
2.04,1500,0.02125137,0.00475824,0.0011511,0
2.051,1500,0.02325137,0.00675824,-0.0048489,0
2.061,1500,0.02225137,0.00675824,-0.0028489,0
2.071,1500,0.02325137,0.00575824,-0.0018489,0
2.081,1500,0.01925137,0.00575824,-0.0048489,0
2.091,1500,0.02125137,0.00675824,0.0001511,0
2.101,1500,0.02325137,0.00475824,0.0011511,0
2.111,1500,0.02425137,0.00475824,-0.0008489,0
2.121,1500,0.02225137,0.00475824,-0.0018489,0
2.131,1500,0.02425137,0.00375824,-0.0028489,0
2.141,1500,0.02425137,0.00475824,-0.0028489,0
2.15,1500,0.02025137,0.00575824,0.0011511,0
2.161,1500,0.02425137,0.00375824,0.0001511,0
2.171,1500,0.02525137,0.00475824,0.0001511,0
2.181,1500,0.01825137,0.00675824,0.0031511,0
2.191,1500,0.02125137,0.00575824,0.0021511,0
2.201,1500,0.02125137,0.00375824,-0.0008489,0
2.211,1500,0.02225137,0.00275824,0.0021511,0
2.22,1500,0.02225137,0.00575824,0.0021511,0
2.231,1500,0.02325137,0.00575824,-0.0018489,0
2.24,1500,0.02525137,0.00575824,-0.0008489,0
2.251,1500,0.02025137,0.00475824,0.0011511,0
2.261,1500,0.02225137,0.00475824,0.0011511,0
2.271,1500,0.02125137,0.00675824,0.0031511,0
2.281,1500,0.02225137,0.00275824,0.0001511,0
2.291,1500,0.02125137,0.00575824,-0.0008489,0
2.301,1500,0.02125137,0.00975824,-0.0008489,0
2.312,1500,0.02225137,0.00575824,-0.0038489,0
2.321,1500,0.02125137,0.00375824,-0.0038489,0
2.331,1500,0.02425137,0.00475824,0.0001511,0
2.341,1500,0.02025137,0.00475824,0.0001511,0
2.351,1500,0.01725137,0.00375824,0.0011511,0
2.361,1500,0.02025137,0.00275824,0.0011511,0
2.371,1500,0.02525137,0.00275824,-0.0008489,0
2.381,1500,0.02325137,0.00575824,0.0001511,0
2.39,1500,0.02025137,0.00675824,-0.0008489,0
2.401,1500,0.02225137,0.00875824,0.0001511,0
2.41,1500,0.02325137,0.00475824,-0.0018489,0
2.421,1500,0.02125137,0.00375824,0.0021511,0
2.431,1500,0.02325137,0.00475824,-0.0048489,0
2.44,1500,0.02325137,0.00175824,0.0011511,0
2.451,1500,0.02125137,0.00375824,0.0011511,0
2.461,1500,0.02025137,0.00775824,-0.0008489,0
2.47,1500,0.02225137,0.00575824,-0.0008489,0
2.481,1500,0.02225137,0.00375824,0.0011511,0
2.49,1500,0.02525137,0.00375824,-0.0018489,0
2.501,1500,0.02425137,0.00675824,-0.0038489,0
2.511,1500,0.02425137,0.00675824,0.0001511,0
2.52,1500,0.02225137,0.00475824,0.0001511,0
2.531,1500,0.02525137,0.00475824,0.0021511,0
2.541,1500,0.02425137,0.00575824,-0.0018489,0
2.55,1500,0.02325137,0.00675824,0.0011511,0
2.561,1500,0.02225137,0.00575824,0.0001511,0
2.571,1500,0.02125137,0.00575824,-0.0008489,0
2.58,1500,0.02325137,0.00675824,-0.0048489,0
2.591,1500,0.02225137,0.00775824,-0.0038489,0
2.601,1500,0.02125137,0.00375824,-0.0028489,0
2.611,1500,0.02225137,0.00775824,0.0001511,0
2.621,1500,0.01925137,0.00675824,-0.0028489,0
2.63,1500,0.02225137,0.00575824,-0.0018489,0
2.641,1500,0.02425137,0.00275824,-0.0008489,0
2.651,1500,0.02225137,0.00575824,0.0021511,0
2.661,1500,0.02325137,0.00475824,-0.0058489,0
2.67,1500,0.02425137,0.00575824,0.0021511,0
2.681,1500,0.02325137,0.00075824,0.0011511,0
2.691,1500,0.01825137,0.00675824,0.0011511,0
2.702,1500,0.02425137,0.00875824,-0.0008489,0
2.711,1500,0.02225137,0.00275824,0.0011511,0
2.721,1500,0.02425137,0.00175824,0.0011511,0
2.731,1500,0.02325137,0.00675824,-0.0038489,0
2.741,1500,0.02325137,0.00775824,-0.0008489,0
2.752,1500,0.02125137,0.00075824,0.0011511,0
2.762,1500,0.02525137,0.00575824,-0.0008489,0
2.771,1500,0.02425137,0.00575824,0.0001511,0
2.781,1500,0.01825137,0.00675824,0.0001511,0
2.791,1500,0.02325137,0.00275824,0.0011511,0
2.801,1500,0.02425137,0.00475824,0.0011511,0
2.811,1500,0.02125137,0.00475824,0.0011511,0
2.821,1500,0.01925137,0.00675824,-0.0008489,0
2.832,1500,0.02125137,0.00375824,-0.0018489,0
2.842,1500,0.02525137,0.00575824,-0.0018489,0
2.852,1500,0.02025137,0.00775824,-0.0018489,0
2.862,1500,0.02225137,0.00575824,-0.0018489,0
2.871,1500,0.02325137,0.00575824,-0.0008489,0
2.881,1500,0.02325137,0.00375824,-0.0008489,0
2.892,1500,0.02225137,0.00975824,-0.0008489,0
2.901,1500,0.02125137,0.00775824,-0.0008489,0
2.912,1500,0.02225137,0.00375824,0.0021511,0
2.922,1500,0.02125137,0.00475824,-0.0018489,0
2.931,1500,0.02225137,0.00575824,0.0001511,0
2.941,1500,0.02325137,0.00575824,0.0011511,0
2.951,1500,0.02125137,0.00275824,-0.0008489,0
2.961,1500,0.02125137,0.00475824,-0.0008489,0
2.971,1500,0.02225137,0.01175824,-0.0028489,0
2.982,1500,0.02325137,0.00275824,-0.0028489,0
2.992,1500,0.02225137,0.00575824,0.0011511,0
3.002,1500,0.02325137,0.00775824,-0.0018489,0
3.011,1500,0.02125137,0.00575824,-0.0028489,0
3.021,1500,0.02225137,0.00275824,0.0011511,0
3.031,1500,0.02425137,0.00775824,-0.0028489,0
3.041,1500,0.02525137,0.00375824,0.0021511,0
3.051,1500,0.02025137,0.00575824,-0.0008489,0
3.061,1500,0.02425137,0.00275824,-0.0008489,0
3.071,1500,0.02325137,0.00475824,0.0001511,0
3.081,1500,0.02025137,0.00575824,0.0001511,0
3.091,1500,0.02225137,0.00775824,-0.0008489,0
3.101,1500,0.02525137,0.00575824,-0.0008489,0
3.111,1500,0.02325137,0.00375824,-0.0008489,0
3.121,1500,0.02125137,0.00475824,-0.0018489,0
3.131,1500,0.02225137,0.00675824,-0.0028489,0
3.141,1500,0.02525137,0.00275824,0.0031511,0
3.152,1500,0.02325137,0.00275824,-0.0028489,0
3.162,1500,0.02125137,0.00775824,-0.0048489,0
3.172,1500,0.02125137,0.00675824,-0.0008489,0
3.182,1500,0.02225137,0.00375824,-0.0008489,0
3.192,1500,0.02225137,0.00675824,0.0021511,0
3.201,1500,0.02325137,0.00975824,-0.0038489,0
3.211,1500,0.02525137,0.00575824,-0.0028489,0
3.221,1500,0.02325137,0.00475824,0.0011511,0
3.231,1500,0.02325137,0.00875824,-0.0028489,0
3.241,1500,0.02325137,0.00475824,-0.0028489,0
3.251,1500,0.02025137,0.00275824,-0.0008489,0
3.262,1500,0.02525137,0.00075824,0.0021511,0
3.271,1500,0.02525137,0.00375824,-0.0018489,0
3.281,1500,0.02425137,0.00475824,-0.0008489,0
3.292,1500,0.02225137,0.00575824,-0.0018489,0
3.302,1500,0.02325137,0.00675824,-0.0018489,0
3.312,1500,0.02325137,0.00475824,0.0031511,0
3.322,1500,0.02125137,0.00675824,-0.0018489,0
3.332,1500,0.02525137,0.00675824,-0.0008489,0
3.341,1500,0.02225137,0.00475824,0.0001511,0
3.351,1500,0.02125137,0.00375824,0.0001511,0
3.361,1500,0.02425137,0.00375824,-0.0058489,0
3.371,1500,0.02425137,0.00675824,-0.0018489,0
3.381,1500,0.02225137,0.00475824,0.0021511,0
3.391,1500,0.02225137,0.00675824,-0.0018489,0
3.402,1500,0.02525137,0.00575824,-0.0008489,0
3.412,1500,0.02525137,0.00575824,-0.0018489,0
3.421,1500,0.02025137,0.00475824,-0.0008489,0
3.431,1500,0.02025137,0.00575824,-0.0008489,0
3.441,1500,0.02125137,0.00575824,-0.0008489,0
3.451,1500,0.02025137,0.00475824,-0.0028489,0
3.461,1500,0.02225137,0.00675824,-0.0038489,0
3.472,1500,0.00225137,-0.02024176,-0.0108489,0
3.481,1500,0.01725137,0.01375824,0.0221511,0
3.491,1500,0.02225137,0.02375824,-0.0028489,0
3.502,1500,0.08825137,0.02975824,-0.0568489,0
3.511,1500,0.01225137,0.01775824,0.0151511,0
3.521,1500,0.03725137,-0.02324176,0.0791511,0
3.532,1500,0.03425137,-0.02724176,0.0671511,0
3.541,1500,0.02025137,0.05975824,-0.0298489,0
3.551,1500,-0.01374863,0.04875824,-0.0578489,0
3.562,1500,0.02125137,-0.03524176,0.0031511,0
3.571,1500,0.02725137,-0.03524176,0.0291511,0
3.581,1500,0.01925137,0.01375824,0.0041511,0
3.591,1500,0.04125137,0.03775824,-0.0188489,0
3.601,1500,0.02625137,0.01375824,-0.0098489,0
3.611,1500,-0.01074863,-0.00524176,0.0001511,0
3.621,1500,0.01725137,-0.01824176,0.0121511,0
3.631,1500,0.02525137,-0.00724176,0.0001511,0
3.641,1500,0.03525137,0.02275824,-0.0228489,0
3.651,1500,0.04625137,0.02075824,-0.0028489,0
3.661,1500,0.03525137,-0.00424176,0.0101511,0
3.672,1500,-0.00574863,0.00175824,0.0141511,0
3.681,1500,-0.00374863,-0.00124176,-0.0038489,0
3.692,1500,0.01725137,0.00075824,-0.0128489,0
3.701,1500,0.02025137,0.01875824,-0.0108489,0
3.711,1500,0.03425137,0.01375824,-0.0008489,0
3.721,1500,0.02625137,0.00375824,0.0041511,0
3.732,1500,0.00725137,-0.00124176,0.0011511,0
3.741,1500,0.00725137,0.00275824,-0.0128489,0
3.751,1500,0.03225137,0.01275824,-0.0088489,0
3.762,1500,0.03125137,0.01275824,-0.0028489,0
3.772,1500,0.04325137,0.00175824,0.0171511,0
3.782,1500,0.02625137,-0.00024176,0.0041511,0
3.792,1500,0.01225137,0.00075824,-0.0118489,0
3.802,1500,-0.00274863,0.00575824,-0.0118489,0
3.812,1500,0.02025137,0.00775824,0.0011511,0
3.821,1500,0.02425137,0.00775824,0.0051511,0
3.831,1500,0.02125137,0.00175824,0.0021511,0
3.841,1500,0.03225137,0.00875824,-0.0098489,0
3.851,1500,0.01425137,0.00475824,-0.0098489,0
3.862,1500,0.01425137,-0.00324176,0.0001511,0
3.872,1500,0.03025137,0.00575824,0.0051511,0
3.882,1500,0.03125137,0.01975824,0.0061511,0
3.892,1500,0.02125137,0.00975824,-0.0048489,0
3.902,1500,0.02525137,-0.00024176,-0.0018489,0
3.911,1500,0.01525137,-0.00324176,-0.0078489,0
3.922,1500,0.02125137,0.00375824,-0.0068489,0
3.932,1500,0.02325137,0.00875824,-0.0058489,0
3.941,1500,0.01625137,0.01275824,0.0011511,0
3.952,1500,0.01925137,0.00575824,-0.0008489,0
3.961,1500,0.01625137,-0.00024176,-0.0008489,0
3.971,1500,0.02125137,0.00075824,-0.0048489,0
3.982,1500,0.02725137,0.00575824,-0.0008489,0
3.991,1500,0.03125137,0.00675824,0.0021511,0
4.001,1500,0.02225137,0.00775824,0.0051511,0
4.012,1500,0.02125137,0.00975824,0.0001511,0
4.021,1500,0.02125137,0.00275824,0.0021511,0
4.031,1500,0.02325137,0.00175824,-0.0028489,0
4.042,1500,0.01825137,0.00775824,-0.0038489,0
4.051,1500,0.01325137,0.00575824,-0.0058489,0
4.061,1500,0.02325137,0.00375824,-0.0038489,0
4.072,1500,0.01525137,0.00875824,-0.0078489,0
4.082,1500,0.01525137,0.00575824,-0.0028489,0
4.091,1500,0.02325137,0.00175824,-0.0008489,0
4.102,1500,0.02825137,0.00275824,0.0031511,0
4.111,1500,0.03025137,0.00975824,0.0001511,0
4.122,1500,0.03425137,0.00375824,0.0011511,0
4.131,1500,0.02325137,0.00175824,0.0041511,0
4.141,1500,0.02525137,0.00475824,0.0001511,0
4.152,1500,0.01225137,0.00975824,-0.0038489,0
4.162,1500,0.01925137,0.00875824,-0.0028489,0
4.172,1500,0.01925137,0.00775824,-0.0058489,0
4.182,1500,0.02125137,0.00175824,-0.0048489,0
4.192,1500,0.01625137,0.00175824,-0.0058489,0
4.202,1500,0.01225137,0.00475824,-0.0058489,0
4.212,1500,0.02125137,0.00575824,0.0001511,0
4.222,1500,0.02925137,0.00875824,0.0021511,0
4.232,1500,0.02425137,0.00875824,-0.0018489,0
4.242,1500,0.02925137,0.00575824,-0.0008489,0
4.252,1500,0.02225137,-0.00024176,-0.0018489,0.036309210550462
4.263,1500,0.01625137,0.00175824,0.0011511,0.036309210550462
4.272,1500,0.02325137,0.00975824,-0.0048489,0.036309210550462
4.282,1500,0.02225137,0.00775824,-0.0078489,0.036309210550462
4.292,1500,0.02225137,0.00675824,0.0051511,0.036309210550462
4.301,1500,0.01725137,0.00675824,0.0031511,0.036309210550462
4.311,1500,0.02825137,0.00775824,0.0001511,0.036309210550462
4.322,1500,0.01525137,0.00275824,-0.0138489,0.036309210550462
4.331,1500,0.03525137,0.00475824,-0.0008489,0.036309210550462
4.342,1500,0.02525137,0.00775824,0.0061511,0.036309210550462
4.352,1500,0.02825137,0.00375824,0.0011511,0.036309210550462
4.361,1500,0.02125137,0.00475824,-0.0018489,0.036309210550462
4.372,1500,0.02425137,0.00475824,0.0041511,0.036309210550462
4.382,1500,0.01725137,0.00475824,-0.0038489,0.036309210550462
4.391,1500,0.02725137,0.00575824,0.0041511,0.036309210550462
4.402,1500,0.01725137,0.00875824,-0.0048489,0.036309210550462
4.411,1500,0.01525137,0.00475824,-0.0018489,0.036309210550462
4.421,1500,0.02225137,0.00475824,0.0021511,0.036309210550462
4.432,1500,0.01325137,0.00675824,-0.0018489,0.036309210550462
4.441,1500,0.03025137,0.00875824,-0.0068489,0.036309210550462
4.452,1500,0.02225137,0.00275824,0.0041511,0.036309210550462
4.462,1500,0.03125137,0.00275824,0.0041511,0.036309210550462
4.471,1500,0.02325137,0.00075824,0.0031511,0.036309210550462
4.482,1500,0.02825137,0.00475824,0.0061511,0.036309210550462
4.492,1500,0.01225137,0.00675824,-0.0038489,0.036309210550462
4.501,1500,0.02125137,0.01175824,-0.0008489,0.036309210550462
4.512,1500,0.01825137,0.01175824,-0.0038489,0.036309210550462
4.522,1500,0.01825137,0.00675824,0.0001511,0.036309210550462
4.531,1500,0.01325137,0.01375824,-0.0028489,0.036309210550462
4.542,1500,0.02225137,0.02775824,-0.0108489,0.036309210550462
4.551,1500,0.09125137,0.09375824,-0.0208489,0.036309210550462
4.562,1500,0.09125137,0.11575824,-0.0248489,0.036309210550462
4.572,1500,0.10125137,0.14075824,-0.0248489,0.036309210550462
4.581,1500,0.13825137,0.15375824,-0.0048489,0.036309210550462
4.592,1500,0.14325137,0.16575824,-0.0108489,0.036309210550462
4.602,1500,0.13425137,0.17775824,-0.0098489,0.036309210550462
4.611,1500,0.13925137,0.18775824,-0.0098489,0.036309210550462
4.622,1500,0.14125137,0.16075824,-0.0208489,0.036309210550462
4.632,1500,0.09725137,0.15575824,-0.0048489,0.036309210550462
4.641,1500,0.13725137,0.09975824,0.0001511,0.036309210550462
4.652,1500,0.10325137,0.09575824,-0.0208489,0.036309210550462
4.661,1500,0.02125137,0.05475824,-0.0138489,0.036309210550462
4.672,1500,0.02525137,0.07875824,-0.0158489,0.036309210550462
4.682,1500,-0.00474863,0.09775824,0.0001511,0.036309210550462
4.691,1500,-0.04374863,0.05775824,-0.0048489,0.036309210550462
4.702,1500,-0.00674863,-0.06424176,0.0111511,0.036309210550462
4.712,1500,0.01725137,-0.01624176,0.0101511,0.036309210550462
4.721,1500,-0.02074863,0.06975824,-0.0428489,0.036309210550462
4.732,1500,-0.03374863,0.07275824,-0.0978489,0.036309210550462
4.742,1500,0.01725137,-0.03124176,-0.0088489,0.036309210550462
4.751,1500,0.01725137,-0.03024176,0.0491511,0.036309210550462
4.762,1500,0.03625137,0.02675824,0.0561511,0.036309210550462
4.772,1500,0.01525137,0.07575824,0.0201511,98.8109339756776
4.781,1500,0.01225137,0.01175824,-0.0258489,98.8109339756776
4.792,1500,0.08225137,-0.02224176,0.0141511,98.8109339756776
4.802,1500,0.07725137,0.01675824,-0.0188489,98.8109339756776
4.811,1500,-0.01074863,0.02675824,0.0171511,98.8109339756776
4.822,1500,-0.01674863,0.00475824,0.0251511,98.8109339756776
4.832,1500,0.02425137,0.01675824,-0.0208489,98.8109339756776
4.842,1500,0.01925137,-0.02324176,-0.0098489,98.8109339756776
4.852,1500,-0.00474863,-0.05124176,0.0681511,98.8109339756776
4.861,1500,-0.06274863,0.02975824,-0.0498489,98.8109339756776
4.872,1500,-0.01374863,0.04875824,-0.0418489,98.8109339756776
4.882,1500,0.10025137,0.03775824,-0.0188489,98.8109339756776
4.891,1500,0.11425137,-0.03124176,0.0611511,98.8109339756776
4.902,1500,0.08025137,0.00675824,0.0161511,98.8109339756776
4.912,1500,-0.02374863,0.07075824,-0.0218489,98.8109339756776
4.922,1500,-0.03574863,0.01275824,0.0641511,98.8109339756776
4.932,1500,-0.01274863,-0.05524176,0.0141511,98.8109339756776
4.942,1500,0.00825137,0.00375824,-0.0618489,98.8109339756776
4.951,1500,-0.05874863,0.07775824,0.0201511,98.8109339756776
4.962,1500,-0.00974863,0.06675824,-0.0218489,98.8109339756776
4.971,1500,-0.01074863,0.00275824,0.0231511,98.8109339756776
4.982,1500,-0.00074863,-0.05124176,0.0391511,98.8109339756776
4.992,1500,0.01625137,0.04475824,0.0091511,98.8109339756776
5.002,1500,0.01525137,0.08875824,-0.0038489,98.8109339756776
5.012,1500,0.03225137,0.05175824,-0.0388489,98.8109339756776
5.023,1500,0.09825137,0.01975824,0.0041511,98.8109339756776
5.032,1500,0.08725137,0.04675824,0.0371511,98.8109339756776
5.042,1500,0.05825137,0.07675824,0.0081511,98.8109339756776
5.052,1500,-0.00474863,0.00975824,-0.0378489,98.8109339756776
5.062,1500,0.03925137,-0.00524176,0.0031511,98.8109339756776
5.072,1500,0.06425137,-0.06724176,0.0451511,98.8109339756776
5.082,1500,0.13725137,-0.04224176,-0.0378489,98.8109339756776
5.092,1500,-0.01374863,-0.05124176,-0.0328489,98.8109339756776
5.101,1500,-0.15674863,-0.10524176,-0.0558489,98.8109339756776
5.112,1500,-0.04374863,-0.05324176,0.0091511,98.8109339756776
5.121,1500,0.18325137,-0.04724176,0.0051511,98.8109339756776
5.132,1500,-0.03174863,-0.09924176,-0.0078489,98.8109339756776
5.142,1500,-0.04674863,-0.06324176,-0.0678489,98.8109339756776
5.152,1500,0.11825137,0.01275824,0.1281511,98.8109339756776
5.162,1500,-0.01174863,-0.02124176,0.0091511,98.8109339756776
5.172,1500,-0.01674863,-0.02124176,0.0651511,98.8109339756776
5.182,1500,-0.16274863,-0.08124176,-0.1068489,98.8109339756776
5.191,1500,-0.16874863,-0.03024176,-0.0138489,98.8109339756776
5.202,1500,0.01425137,-0.00424176,-0.0148489,98.8109339756776
5.212,1500,-0.03674863,-0.04024176,-0.1578489,98.8109339756776
5.222,1500,0.06725137,-0.00124176,-0.1428489,98.8109339756776
5.232,1500,-0.07774863,-0.01024176,-0.1248489,98.8109339756776
5.243,1500,0.00325137,-0.01324176,-0.1118489,98.8109339756776
5.253,1500,0.01125137,-0.00624176,-0.0838489,98.8109339756776
5.262,1500,0.13425137,0.02675824,0.0441511,98.8109339756776
5.272,1500,-0.05174863,-0.02024176,-0.0468489,98.8109339756776
5.282,1500,0.03825137,-0.01924176,-0.0308489,98.8109339756776
5.292,1500,0.02525137,0.06375824,0.0891511,186.951766283023
5.302,1500,0.11925137,0.04375824,0.0311511,186.951766283023
5.312,1500,-0.02674863,0.00875824,-0.0128489,186.951766283023
5.322,1500,0.04425137,0.02875824,0.0031511,186.951766283023
5.332,1500,-0.01474863,-0.01224176,-0.0458489,186.951766283023
5.343,1500,-0.01774863,-0.04724176,-0.1158489,186.951766283023
5.353,1500,-0.10074863,0.00875824,-0.0008489,186.951766283023
5.363,1500,0.06025137,-0.00924176,-0.0428489,186.951766283023
5.372,1500,-0.02674863,-0.00924176,-0.0688489,186.951766283023
5.382,1500,0.16425137,0.08975824,0.0461511,186.951766283023
5.393,1500,-0.02874863,0.02675824,0.0171511,186.951766283023
5.403,1500,0.01225137,-0.01524176,0.0671511,186.951766283023
5.413,1500,0.02525137,0.04575824,0.1251511,186.951766283023
5.423,1500,-0.00274863,-0.02124176,0.0621511,186.951766283023
5.433,1500,-0.00574863,-0.01824176,0.0291511,186.951766283023
5.442,1500,-0.02874863,0.02275824,0.0521511,186.951766283023
5.452,1500,0.00325137,-0.04924176,0.0171511,186.951766283023
5.461,1500,0.14625137,0.03675824,0.0121511,186.951766283023
5.472,1500,-0.02874863,0.02975824,0.0041511,186.951766283023
5.482,1500,0.02425137,0.01675824,0.0821511,186.951766283023
5.492,1500,0.03425137,0.05175824,0.1541511,186.951766283023
5.502,1500,-0.05774863,0.00575824,0.0921511,186.951766283023
5.512,1500,-0.02274863,0.01475824,0.0581511,186.951766283023
5.522,1500,0.13125137,0.05275824,0.0851511,186.951766283023
5.532,1500,-0.09474863,-0.04524176,0.0101511,186.951766283023
5.542,1500,-0.23274863,-0.02124176,0.0461511,186.951766283023
5.552,1500,-0.06674863,-0.01624176,-0.0788489,186.951766283023
5.562,1500,-0.05574863,-0.00624176,-0.1118489,186.951766283023
5.572,1500,0.00125137,-0.00224176,-0.0518489,186.951766283023
5.582,1500,-0.07174863,0.00275824,-0.0158489,186.951766283023
5.592,1500,0.01125137,0.04575824,0.0411511,186.951766283023
5.602,1500,-0.00974863,0.05275824,0.0531511,186.951766283023
5.612,1500,-0.15874863,-0.01924176,-0.0568489,186.951766283023
5.622,1500,-0.04874863,-0.00524176,0.0211511,186.951766283023
5.632,1500,0.06725137,0.07775824,0.0381511,186.951766283023
5.642,1500,0.09025137,0.08775824,0.0851511,186.951766283023
5.652,1500,0.10025137,0.11275824,0.1691511,186.951766283023
5.662,1500,0.15625137,0.11375824,0.0751511,186.951766283023
5.672,1500,-0.08474863,0.01875824,-0.0728489,186.951766283023
5.682,1500,0.01725137,-0.00524176,-0.0258489,186.951766283023
5.692,1500,-0.03874863,-0.02024176,-0.0038489,186.951766283023
5.702,1500,-0.02974863,-0.05024176,0.0671511,186.951766283023
5.712,1500,-0.10674863,-0.10724176,0.0361511,186.951766283023
5.722,1500,-0.02374863,-0.10824176,-0.0338489,186.951766283023
5.733,1500,-0.13974863,-0.10424176,0.0751511,186.951766283023
5.742,1500,0.01425137,-0.03624176,0.0791511,186.951766283023
5.752,1500,-0.05774863,-0.03724176,0.0731511,186.951766283023
5.762,1500,-0.07474863,-0.03724176,0.0181511,186.951766283023
5.772,1500,-0.11774863,-0.03024176,-0.0038489,186.951766283023
5.782,1500,-0.02574863,-0.07724176,-0.0488489,186.951766283023
5.792,1500,0.02125137,-0.02824176,-0.0028489,186.951766283023
5.802,1500,-0.03574863,-0.02224176,-0.0288489,186.951766283023
5.813,1500,-0.03074863,-0.02624176,-0.0378489,166.076365003998
5.822,1500,-0.00874863,0.01775824,-0.0018489,166.076365003998
5.832,1500,-0.02874863,-0.01824176,0.0121511,166.076365003998
5.843,1500,0.01925137,-0.00924176,0.0131511,166.076365003998
5.852,1500,-0.03174863,-0.00424176,-0.0168489,166.076365003998
5.862,1500,-0.03774863,-0.01524176,0.0111511,166.076365003998
5.872,1500,-0.02574863,0.02175824,-0.0208489,166.076365003998
5.882,1500,-0.06274863,-0.00424176,0.0111511,166.076365003998
5.892,1500,0.00825137,0.00875824,0.0051511,166.076365003998
5.902,1500,0.01025137,0.02175824,-0.0068489,166.076365003998
5.912,1500,0.01125137,-0.00524176,-0.0018489,166.076365003998
5.923,1500,-0.01374863,0.01875824,-0.0408489,166.076365003998
5.932,1500,-0.02874863,0.03975824,0.0281511,166.076365003998
5.942,1500,-0.05174863,-0.01124176,-0.0048489,166.076365003998
5.952,1500,0.02225137,0.01975824,0.0111511,166.076365003998
5.963,1500,0.00625137,0.00075824,0.0291511,166.076365003998
5.972,1500,-0.01474863,-0.02124176,-0.0048489,166.076365003998
5.982,1500,-0.00574863,0.03775824,-0.0098489,166.076365003998
5.993,1500,-0.01074863,0.01575824,0.0171511,166.076365003998
6.002,1500,-0.05174863,-0.00224176,-0.0198489,166.076365003998
6.012,1500,0.02025137,0.01375824,-0.0198489,166.076365003998
6.022,1500,-0.04374863,-0.00724176,-0.0078489,166.076365003998
6.032,1500,-0.00274863,0.02575824,0.0301511,166.076365003998
6.042,1500,0.02125137,0.02275824,-0.0068489,166.076365003998
6.052,1500,-0.04774863,0.01375824,0.0041511,166.076365003998
6.062,1500,0.02625137,0.02075824,-0.0008489,166.076365003998
6.073,1500,-0.01074863,0.00075824,-0.0208489,166.076365003998
6.082,1500,-0.02274863,0.00375824,0.0191511,166.076365003998
6.092,1500,-0.04074863,0.00475824,0.0111511,166.076365003998
6.102,1500,-0.02674863,0.01375824,-0.0128489,166.076365003998
6.112,1500,-0.00874863,0.01475824,0.0331511,166.076365003998
6.123,1500,0.02725137,0.01175824,0.0021511,166.076365003998
6.132,1500,0.01525137,0.00875824,0.0121511,166.076365003998
6.142,1500,-0.03574863,-0.01424176,0.0031511,166.076365003998
6.152,1500,0.02725137,0.03375824,-0.0038489,166.076365003998
6.162,1500,-0.03174863,0.00075824,-0.0128489,166.076365003998
6.173,1500,-0.00374863,-0.01724176,0.0221511,166.076365003998
6.182,1500,0.00425137,0.00875824,-0.0118489,166.076365003998
6.192,1500,0.03825137,-0.03324176,-0.0248489,166.076365003998
6.202,1500,0.03025137,-0.00324176,-0.0018489,166.076365003998
6.212,1500,0.04225137,0.04275824,0.0111511,166.076365003998
6.222,1500,-0.06874863,0.00975824,-0.0188489,166.076365003998
6.233,1500,-0.00874863,0.02775824,-0.0488489,166.076365003998
6.243,1500,-0.00674863,0.00075824,-0.0058489,166.076365003998
6.253,1500,0.00025137,-0.00924176,0.0081511,166.076365003998
6.263,1500,0.04725137,0.05475824,0.0051511,166.076365003998
6.273,1500,0.01625137,0.00775824,0.0121511,166.076365003998
6.283,1500,0.03725137,0.04975824,-0.0108489,166.076365003998
6.293,1500,0.02125137,0.04575824,-0.0058489,166.076365003998
6.302,1500,-0.04374863,0.01275824,0.0111511,166.076365003998
6.312,1500,-0.00374863,0.06975824,0.0081511,166.076365003998
6.322,1500,0.01825137,0.05775824,-0.0018489,166.076365003998
6.333,1500,0.03525137,0.06275824,0.0031511,153.438703936397
6.342,1500,0.04425137,0.08275824,-0.0268489,153.438703936397
6.353,1500,0.04525137,0.01375824,0.0031511,153.438703936397
6.362,1500,0.00825137,0.03475824,0.0221511,153.438703936397
6.372,1500,0.00125137,0.01275824,0.0061511,153.438703936397
6.383,1500,-0.05474863,-0.03524176,0.0241511,153.438703936397
6.392,1500,-0.01074863,-0.08824176,0.0091511,153.438703936397
6.403,1500,-0.01274863,-0.11524176,0.0061511,153.438703936397
6.412,1500,-0.04174863,-0.11824176,-0.0058489,153.438703936397
6.422,1500,-0.01274863,-0.08524176,0.0331511,153.438703936397
6.433,1500,-0.02974863,-0.07324176,-0.0078489,153.438703936397
6.443,1500,-0.08474863,-0.09124176,-0.0068489,153.438703936397
6.453,1500,-0.01974863,-0.07124176,0.0171511,153.438703936397
6.463,1500,-0.05974863,-0.03424176,0.0471511,153.438703936397
6.472,1500,-0.04474863,-0.02124176,-0.0388489,153.438703936397
6.482,1500,0.03225137,0.00475824,-0.0318489,153.438703936397
6.492,1500,0.03125137,-0.00324176,-0.0178489,153.438703936397
6.502,1500,-0.17674863,0.00875824,-0.0248489,153.438703936397
6.513,1500,-0.10074863,0.01875824,-0.0138489,153.438703936397
6.523,1500,-0.02074863,-0.00024176,-0.0058489,153.438703936397
6.533,1500,0.04925137,0.02675824,-0.0078489,153.438703936397
6.543,1500,-0.01974863,0.00675824,0.0041511,153.438703936397
6.553,1500,-0.01574863,0.00175824,-0.0068489,153.438703936397
6.563,1500,0.02225137,0.01475824,0.0041511,153.438703936397
6.573,1500,-0.05774863,-0.04724176,-0.0798489,153.438703936397
6.583,1500,-0.02774863,0.01375824,-0.0388489,153.438703936397
6.593,1500,0.02625137,0.00875824,-0.0128489,153.438703936397
6.603,1500,0.01325137,-0.01724176,0.0111511,153.438703936397
6.613,1500,-0.02674863,0.00775824,-0.0378489,153.438703936397
6.623,1500,-0.08274863,-0.00924176,-0.0198489,153.438703936397
6.633,1500,-0.08074863,-0.00824176,-0.0108489,153.438703936397
6.643,1500,0.04425137,0.02975824,0.0021511,153.438703936397
6.653,1500,0.01625137,0.03175824,0.0741511,153.438703936397
6.662,1500,-0.00974863,0.00275824,0.0211511,153.438703936397
6.672,1500,-0.05774863,0.02975824,0.0131511,153.438703936397
6.682,1500,0.03125137,0.03775824,-0.0108489,153.438703936397
6.692,1500,-0.04574863,-0.01524176,-0.0378489,153.438703936397
6.702,1500,0.00025137,0.03675824,0.0051511,153.438703936397
6.712,1500,-0.06974863,0.01875824,0.0161511,153.438703936397
6.722,1500,-0.13674863,-0.03424176,0.0231511,153.438703936397
6.732,1500,-0.04874863,-0.01324176,0.0001511,153.438703936397
6.742,1500,-0.06174863,0.01975824,-0.0138489,153.438703936397
6.752,1500,-0.00174863,0.01075824,0.0031511,153.438703936397
6.762,1500,0.04225137,0.03175824,-0.0038489,153.438703936397
6.773,1500,0.05325137,0.02775824,-0.0058489,153.438703936397
6.783,1500,-0.05774863,-0.00724176,0.0071511,153.438703936397
6.793,1500,-0.06074863,0.00175824,-0.0098489,153.438703936397
6.803,1500,-0.04774863,-0.01024176,-0.0658489,153.438703936397
6.813,1500,0.05425137,0.02275824,-0.0048489,153.438703936397
6.823,1500,0.04025137,0.01375824,0.0051511,153.438703936397
6.833,1500,-0.01074863,0.00175824,0.0151511,153.438703936397
6.843,1500,-0.02874863,0.01375824,-0.0028489,129.320573470125
6.853,1500,0.01625137,0.02475824,-0.0028489,129.320573470125
6.863,1500,-0.00274863,0.00575824,-0.0098489,129.320573470125
6.873,1500,0.06825137,0.03475824,0.0031511,129.320573470125
6.883,1500,-0.02674863,-0.00524176,-0.0418489,129.320573470125
6.892,1500,0.01525137,0.02375824,0.0081511,129.320573470125
6.903,1500,0.00925137,-0.01124176,-0.0418489,129.320573470125
6.913,1500,-0.05474863,-0.00024176,0.0301511,129.320573470125
6.923,1500,-0.01374863,0.02175824,-0.0008489,129.320573470125
6.933,1500,-0.01574863,0.01375824,-0.0028489,129.320573470125
6.943,1500,-0.04374863,0.02675824,0.0001511,129.320573470125
6.952,1500,0.06625137,0.01175824,-0.0358489,129.320573470125
6.963,1500,0.05225137,-0.00724176,-0.0118489,129.320573470125
6.972,1500,0.00325137,0.00875824,0.0061511,129.320573470125
6.983,1500,0.04225137,0.00575824,0.0131511,129.320573470125
6.992,1500,-0.01674863,0.02075824,0.0091511,129.320573470125
7.002,1500,-0.01374863,0.03775824,-0.0068489,129.320573470125
7.013,1500,0.07425137,0.02575824,0.0151511,129.320573470125
7.022,1500,-0.01874863,0.00075824,-0.0288489,129.320573470125
7.033,1500,0.01825137,0.04475824,-0.0098489,129.320573470125
7.042,1500,0.05925137,0.01875824,-0.0278489,129.320573470125
7.053,1500,0.03125137,-0.03424176,-0.1238489,129.320573470125
7.063,1500,-0.37074863,-0.08124176,-0.1498489,129.320573470125
7.072,1500,-0.13574863,-0.03924176,-0.0578489,129.320573470125
7.082,1500,-0.22874863,-0.03424176,0.1481511,129.320573470125
7.092,1500,0.07025137,0.00875824,0.1611511,129.320573470125
7.103,1500,0.00125137,-0.13624176,-0.1168489,129.320573470125
7.113,1500,0.18525137,-0.08324176,-0.0238489,129.320573470125
7.123,1500,0.06625137,-0.05924176,0.0481511,129.320573470125
7.133,1500,-0.09074863,-0.13624176,-0.0408489,129.320573470125
7.143,1500,0.01925137,-0.06224176,0.1511511,129.320573470125
7.153,1500,-0.01374863,-0.10924176,0.0051511,129.320573470125
7.163,1500,-0.10774863,-0.10724176,-0.0348489,129.320573470125
7.173,1500,0.08425137,-0.02324176,0.0531511,129.320573470125
7.183,1500,-0.05374863,-0.05624176,-0.0168489,129.320573470125
7.192,1500,0.02925137,-0.00124176,0.0621511,129.320573470125
7.203,1500,0.00225137,-0.03324176,0.0131511,129.320573470125
7.212,1500,0.01725137,-0.02124176,0.0341511,129.320573470125
7.223,1500,0.06325137,-0.02024176,-0.0068489,129.320573470125
7.232,1500,-0.09974863,-0.07524176,-0.0758489,129.320573470125
7.243,1500,-0.01474863,0.00975824,0.0131511,129.320573470125
7.253,1500,-0.03474863,-0.03024176,-0.1048489,129.320573470125
7.263,1500,0.04025137,0.01375824,0.0291511,129.320573470125
7.273,1500,-0.14074863,-0.03824176,-0.0708489,129.320573470125
7.283,1500,0.10925137,0.01975824,0.0111511,129.320573470125
7.292,1500,-0.00774863,0.01275824,0.0511511,129.320573470125
7.303,1500,0.16625137,0.01875824,0.0161511,129.320573470125
7.313,1500,-0.05774863,-0.03924176,-0.1048489,129.320573470125
7.323,1500,-0.02574863,-0.00724176,-0.0718489,129.320573470125
7.333,1500,-0.05874863,-0.04524176,-0.1038489,129.320573470125
7.343,1500,-0.17274863,-0.04224176,-0.0348489,129.320573470125
7.353,1500,-0.07174863,-0.00124176,-0.0118489,129.320573470125
7.363,1500,-0.13274863,-0.08824176,-0.1768489,129.320573470125
7.373,1500,0.01025137,-0.00024176,-0.0168489,77.707459030877
7.383,1500,-0.22474863,-0.08424176,-0.0998489,77.707459030877
7.393,1500,-0.02574863,0.01775824,0.0631511,77.707459030877
7.403,1500,-0.22474863,-0.01624176,0.0701511,77.707459030877
7.413,1500,-0.01074863,0.00675824,0.1021511,77.707459030877
7.423,1500,0.09625137,0.04175824,0.1191511,77.707459030877
7.432,1500,-0.03574863,-0.01524176,-0.0118489,77.707459030877
7.443,1500,-0.03274863,-0.07624176,-0.1068489,77.707459030877
7.453,1500,0.04525137,0.01275824,-0.0008489,77.707459030877
7.463,1500,-0.03074863,-0.06624176,-0.1018489,77.707459030877
7.473,1500,0.00725137,0.00075824,0.0131511,77.707459030877
7.483,1500,-0.06074863,-0.05424176,-0.0848489,77.707459030877
7.493,1500,0.06725137,0.01175824,0.0191511,77.707459030877
7.502,1500,0.00125137,0.04875824,0.0651511,77.707459030877
7.514,1500,-0.05174863,-0.01624176,-0.0138489,77.707459030877
7.523,1500,0.01525137,0.08475824,0.2011511,77.707459030877
7.534,1500,-0.02574863,-0.01324176,0.0051511,77.707459030877
7.543,1500,0.06725137,0.00475824,0.0141511,77.707459030877
7.553,1500,0.00625137,-0.02324176,0.0071511,77.707459030877
7.564,1500,-0.07074863,-0.05524176,-0.0948489,77.707459030877
7.574,1500,0.08925137,-0.01724176,-0.0038489,77.707459030877
7.584,1500,-0.00474863,-0.01024176,0.0281511,77.707459030877
7.593,1500,0.09325137,-0.00724176,0.0091511,77.707459030877
7.603,1500,0.00525137,-0.00524176,0.0571511,77.707459030877
7.613,1500,0.02825137,-0.01024176,0.0451511,77.707459030877
7.624,1500,-0.01374863,0.02575824,0.0741511,77.707459030877
7.633,1500,0.14625137,0.02175824,0.0001511,77.707459030877
7.643,1500,0.04425137,0.01875824,0.0831511,77.707459030877
7.653,1500,0.12425137,0.01875824,0.0041511,77.707459030877
7.664,1500,-0.03574863,-0.06224176,-0.1148489,77.707459030877
7.674,1500,-0.03474863,0.01175824,-0.0368489,77.707459030877
7.683,1500,-0.07774863,-0.06924176,-0.1418489,77.707459030877
7.693,1500,-0.05574863,-0.04024176,-0.0428489,77.707459030877
7.703,1500,-0.06274863,-0.01724176,-0.0368489,77.707459030877
7.713,1500,-0.09674863,-0.00024176,0.0381511,77.707459030877
7.723,1500,0.05925137,0.00175824,0.0381511,77.707459030877
7.733,1500,0.00325137,0.00875824,0.0361511,77.707459030877
7.743,1500,-0.07174863,-0.00424176,0.0401511,77.707459030877
7.753,1500,0.00025137,0.03575824,0.0841511,77.707459030877
7.763,1500,0.02525137,0.02875824,0.0661511,77.707459030877
7.773,1500,-0.04574863,-0.04124176,-0.0878489,77.707459030877
7.783,1500,0.03025137,-0.00524176,0.0091511,77.707459030877
7.793,1500,0.00425137,-0.01624176,-0.0138489,77.707459030877
7.803,1500,-0.01874863,0.00275824,-0.0028489,77.707459030877
7.813,1500,-0.09574863,-0.02624176,0.0011511,77.707459030877
7.823,1500,-0.04074863,-0.00624176,0.0121511,77.707459030877
7.834,1500,-0.03774863,-0.04424176,-0.0038489,77.707459030877
7.844,1500,-0.03474863,-0.02324176,-0.0098489,77.707459030877
7.854,1500,-0.00374863,-0.04724176,-0.0618489,77.707459030877
7.863,1500,0.11325137,-0.02824176,-0.0788489,77.707459030877
7.873,1500,-0.16774863,-0.14924176,-0.2508489,77.707459030877
7.883,1500,-0.08974863,-0.01324176,0.0031511,77.707459030877
7.893,1500,-0.07174863,-0.06924176,-0.1628489,41.5705857173937
7.903,1500,0.18425137,0.00175824,-0.0138489,41.5705857173937
7.913,1500,-0.05074863,-0.01224176,-0.0338489,41.5705857173937
7.923,1500,0.02525137,-0.02124176,-0.0148489,41.5705857173937
7.933,1500,-0.05674863,0.01575824,0.0831511,41.5705857173937
7.943,1500,0.15125137,0.00475824,0.0981511,41.5705857173937
7.953,1500,-0.04974863,0.02875824,0.1461511,41.5705857173937
7.963,1500,0.17525137,0.00675824,0.0291511,41.5705857173937
7.973,1500,0.04325137,0.01775824,0.0791511,41.5705857173937
7.983,1500,0.02425137,-0.02924176,-0.0188489,41.5705857173937
7.993,1500,-0.03474863,-0.01824176,-0.0088489,41.5705857173937
8.004,1500,0.05725137,-0.01124176,-0.0208489,41.5705857173937
8.014,1500,-0.03074863,-0.04324176,-0.0378489,41.5705857173937
8.024,1500,-0.11574863,-0.04824176,0.0041511,41.5705857173937
8.034,1500,-0.02174863,0.00275824,0.0191511,41.5705857173937
8.043,1500,-0.05074863,-0.00324176,0.0741511,41.5705857173937
8.053,1500,-0.01174863,-0.00224176,0.0231511,41.5705857173937
8.063,1500,0.03325137,0.01175824,0.0891511,41.5705857173937
8.073,1500,0.06725137,-0.03824176,-0.0618489,41.5705857173937
8.083,1500,-0.00174863,-0.01624176,-0.0128489,41.5705857173937
8.093,1500,-0.07574863,-0.04924176,-0.0448489,41.5705857173937
8.104,1500,0.09525137,-0.01824176,-0.0578489,41.5705857173937
8.114,1500,-0.02674863,-0.05324176,-0.0818489,41.5705857173937
8.124,1500,0.02125137,0.02575824,0.0961511,41.5705857173937
8.133,1500,0.04325137,-0.01224176,-0.0048489,41.5705857173937
8.144,1500,-0.08274863,-0.00724176,0.0451511,41.5705857173937
8.154,1500,-0.14174863,-0.06624176,-0.0378489,41.5705857173937
8.163,1500,0.08925137,0.11675824,0.2121511,41.5705857173937
8.174,1500,-0.00274863,-0.00724176,-0.0088489,41.5705857173937
8.184,1500,0.23425137,0.10175824,0.1921511,41.5705857173937
8.194,1500,-0.10974863,-0.05724176,-0.0478489,41.5705857173937
8.203,1500,-0.09974863,-0.06324176,-0.0588489,41.5705857173937
8.214,1500,0.04025137,-0.01724176,0.0181511,41.5705857173937
8.223,1500,0.06325137,-0.06724176,-0.1118489,41.5705857173937
8.233,1500,0.00825137,-0.03624176,-0.0738489,41.5705857173937
8.244,1500,-0.03874863,-0.02824176,-0.0358489,41.5705857173937
8.253,1500,0.09225137,-0.02524176,0.0081511,41.5705857173937
8.263,1500,-0.00574863,-0.03324176,-0.0078489,41.5705857173937
8.273,1500,0.10925137,0.00175824,0.0251511,41.5705857173937
8.283,1500,-0.02374863,-0.02824176,-0.0498489,41.5705857173937
8.293,1500,0.12625137,0.01375824,-0.0398489,41.5705857173937
8.303,1500,0.03025137,-0.03024176,-0.0558489,41.5705857173937
8.313,1500,-0.07374863,-0.02224176,-0.0798489,41.5705857173937
8.323,1500,-0.03774863,-0.04924176,-0.0518489,41.5705857173937
8.333,1500,-0.14274863,-0.04624176,-0.0738489,41.5705857173937
8.343,1500,-0.00374863,-0.03724176,-0.0778489,41.5705857173937
8.353,1500,-0.19474863,-0.07524176,-0.0708489,41.5705857173937
8.364,1500,-0.20674863,-0.04124176,-0.0418489,41.5705857173937
8.374,1500,-0.17174863,-0.03424176,0.0231511,41.5705857173937
8.384,1500,-0.01074863,-0.03224176,-0.0248489,41.5705857173937
8.394,1500,0.11425137,0.05575824,0.1261511,41.5705857173937
8.403,1500,-0.02774863,-0.03824176,-0.0268489,41.5705857173937
8.414,1500,0.07925137,0.01175824,-0.0188489,43.7408364077503
8.424,1500,0.03925137,-0.06024176,-0.0558489,43.7408364077503
8.433,1500,0.07025137,-0.03524176,-0.0728489,43.7408364077503
8.444,1500,-0.01974863,-0.04524176,-0.0518489,43.7408364077503
8.454,1500,-0.10174863,-0.10424176,-0.1618489,43.7408364077503
8.464,1500,0.01125137,0.01475824,0.0271511,43.7408364077503
8.474,1500,-0.20874863,-0.14124176,-0.2078489,43.7408364077503
8.484,1500,-0.04474863,0.03275824,0.0781511,43.7408364077503
8.494,1500,-0.12274863,-0.05524176,-0.0668489,43.7408364077503
8.504,1500,0.00625137,-0.00424176,0.0131511,43.7408364077503
8.513,1500,-0.01974863,-0.05324176,-0.0948489,43.7408364077503
8.523,1500,-0.01674863,0.00175824,0.0171511,43.7408364077503
8.533,1500,-0.06374863,-0.04724176,-0.0428489,43.7408364077503
8.543,1500,0.04325137,-0.00224176,0.0411511,43.7408364077503
8.554,1500,-0.04874863,-0.02824176,-0.0158489,43.7408364077503
8.564,1500,0.05725137,-0.04324176,0.0141511,43.7408364077503
8.574,1500,-0.04674863,0.06075824,0.1701511,43.7408364077503
8.584,1500,0.19425137,-0.00324176,0.0451511,43.7408364077503
8.594,1500,-0.00874863,0.02075824,0.1311511,43.7408364077503
8.603,1500,0.10825137,0.00275824,0.0291511,43.7408364077503
8.614,1500,0.01425137,0.00875824,0.0641511,43.7408364077503
8.624,1500,0.25525137,0.02575824,0.0261511,43.7408364077503
8.634,1500,0.03025137,-0.02824176,-0.0238489,43.7408364077503
8.643,1500,-0.05774863,-0.04624176,-0.0638489,43.7408364077503
8.653,1500,0.02025137,-0.02124176,-0.0238489,43.7408364077503
8.663,1500,-0.12374863,-0.04924176,-0.0008489,43.7408364077503
8.673,1500,-0.00574863,0.00875824,0.0541511,43.7408364077503
8.683,1500,-0.15274863,-0.05924176,-0.0278489,43.7408364077503
8.693,1500,-0.04974863,-0.01224176,0.0331511,43.7408364077503
8.703,1500,-0.14274863,-0.00724176,0.0811511,43.7408364077503
8.713,1500,0.02025137,-0.02224176,0.0071511,43.7408364077503
8.723,1500,0.10525137,0.04175824,0.0531511,43.7408364077503
8.733,1500,-0.05574863,-0.01324176,-0.0238489,43.7408364077503
8.744,1500,-0.02974863,-0.04824176,-0.0878489,43.7408364077503
8.754,1500,0.03125137,0.00775824,0.0151511,43.7408364077503
8.764,1500,-0.03874863,-0.04024176,-0.0268489,43.7408364077503
8.774,1500,-0.03774863,-0.01224176,0.0021511,43.7408364077503
8.784,1500,-0.05574863,0.02875824,0.0951511,43.7408364077503
8.794,1500,-0.04574863,-0.06124176,-0.0448489,43.7408364077503
8.804,1500,0.04225137,0.08575824,0.1961511,43.7408364077503
8.814,1500,-0.05074863,-0.02224176,0.0071511,43.7408364077503
8.823,1500,0.07725137,0.00975824,0.0071511,43.7408364077503
8.833,1500,0.05725137,-0.02924176,-0.0518489,43.7408364077503
8.843,1500,-0.03574863,-0.04824176,-0.1568489,43.7408364077503
8.854,1500,0.05825137,0.01575824,0.0181511,43.7408364077503
8.863,1500,-0.04674863,-0.02924176,-0.0588489,43.7408364077503
8.873,1500,-0.06474863,-0.04824176,-0.0238489,43.7408364077503
8.883,1500,0.06525137,0.08675824,0.1761511,43.7408364077503
8.893,1500,0.12925137,-0.01124176,0.0181511,43.7408364077503
8.904,1500,0.04825137,0.01875824,0.0601511,43.7408364077503
8.914,1500,-0.12474863,-0.00524176,-0.0178489,43.7408364077503
8.923,1500,-0.00474863,0.03175824,0.0731511,43.7408364077503
8.933,1500,0.23025137,0.05475824,0.0601511,50.758913251316
8.943,1500,0.02325137,0.00675824,0.0071511,50.758913251316
8.953,1500,0.12125137,0.09975824,0.1561511,50.758913251316
8.964,1500,0.05325137,-0.02924176,-0.0378489,50.758913251316
8.974,1500,0.09925137,0.09275824,0.1801511,50.758913251316
8.984,1500,-0.08974863,-0.05124176,-0.0008489,50.758913251316
8.994,1500,0.03125137,0.05575824,0.0811511,50.758913251316
9.004,1500,0.03525137,0.09075824,0.1391511,50.758913251316
9.014,1500,0.10125137,0.02175824,-0.0528489,50.758913251316
9.024,1500,0.06625137,0.00975824,-0.0688489,50.758913251316
9.034,1500,-0.07374863,-0.06824176,-0.1738489,50.758913251316
9.044,1500,0.01625137,0.05875824,-0.0478489,50.758913251316
9.054,1500,0.05625137,-0.03024176,-0.1348489,50.758913251316
9.064,1500,-0.05374863,0.03675824,0.1091511,50.758913251316
9.074,1500,-0.24274863,0.00475824,-0.0298489,50.758913251316
9.084,1500,0.10425137,0.09675824,0.1191511,50.758913251316
9.094,1500,0.00625137,0.02275824,-0.0108489,50.758913251316
9.104,1500,-0.16974863,-0.10224176,-0.2908489,50.758913251316
9.114,1500,-0.42574863,-0.03424176,-0.0038489,50.758913251316
9.124,1500,-0.15474863,-0.00424176,-0.0998489,50.758913251316
9.134,1500,-0.15474863,0.10175824,0.0841511,50.758913251316
9.143,1500,-0.00574863,0.06275824,0.0231511,50.758913251316
9.153,1500,-0.05674863,-0.11124176,-0.2978489,50.758913251316
9.164,1500,-0.07974863,-0.03124176,0.0511511,50.758913251316
9.174,1500,0.20325137,0.12075824,0.1651511,50.758913251316
9.184,1500,0.17925137,0.03875824,0.0041511,50.758913251316
9.194,1500,0.10325137,0.01475824,0.0341511,50.758913251316
9.204,1500,-0.06374863,-0.06524176,-0.1628489,50.758913251316
9.214,1500,0.14725137,0.08675824,0.1991511,50.758913251316
9.224,1500,-0.14174863,-0.09624176,-0.2378489,50.758913251316
9.234,1500,0.00125137,0.04075824,-0.0178489,50.758913251316
9.244,1500,-0.19274863,-0.09924176,-0.0448489,50.758913251316
9.254,1500,0.21425137,0.04375824,0.0571511,50.758913251316
9.264,1500,0.03725137,-0.03424176,-0.0118489,50.758913251316
9.274,1500,-0.16474863,-0.11424176,-0.2288489,50.758913251316
9.283,1500,-0.18874863,-0.11124176,-0.1348489,50.758913251316
9.293,1500,-0.17874863,-0.08124176,-0.0088489,50.758913251316
9.303,1500,0.06725137,-0.00324176,0.0611511,50.758913251316
9.313,1500,-0.03674863,-0.00524176,0.0801511,50.758913251316
9.324,1500,0.07425137,-0.01824176,0.0511511,50.758913251316
9.334,1500,-0.03674863,-0.07124176,-0.0418489,50.758913251316
9.344,1500,-0.03574863,-0.04524176,0.0661511,50.758913251316
9.354,1500,0.01225137,-0.00124176,0.0461511,50.758913251316
9.364,1500,0.07725137,-0.05324176,-0.0528489,50.758913251316
9.374,1500,0.04125137,-0.03924176,-0.0158489,50.758913251316
9.383,1500,-0.02174863,0.02575824,0.0851511,50.758913251316
9.393,1500,-0.09774863,-0.04024176,0.0021511,50.758913251316
9.404,1500,-0.05874863,-0.07424176,-0.1278489,50.758913251316
9.413,1500,0.00225137,0.00475824,-0.0378489,50.758913251316
9.424,1500,0.09025137,0.01375824,-0.0098489,50.758913251316
9.433,1500,0.00225137,-0.05624176,-0.0048489,50.758913251316
9.444,1500,0.03425137,-0.02824176,0.0181511,50.758913251316
9.454,1500,-0.12374863,-0.05624176,-0.0118489,119.93457991997
9.464,1500,-0.02874863,0.01275824,0.0081511,119.93457991997
9.474,1500,0.00825137,0.04375824,0.0421511,119.93457991997
9.484,1500,0.05225137,-0.02924176,-0.0288489,119.93457991997
9.494,1500,-0.01874863,-0.02424176,0.0051511,119.93457991997
9.503,1500,0.04525137,0.04375824,0.0641511,119.93457991997
9.514,1500,0.06025137,-0.01124176,-0.0078489,119.93457991997
9.524,1500,-0.09274863,-0.01924176,-0.1118489,119.93457991997
9.534,1500,-0.11574863,0.01375824,-0.0308489,119.93457991997
9.544,1500,0.11225137,-0.00824176,0.0131511,119.93457991997
9.554,1500,0.01125137,-0.01424176,-0.0028489,119.93457991997
9.564,1500,-0.03474863,-0.00624176,0.0051511,119.93457991997
9.574,1500,-0.01474863,0.01075824,0.0391511,119.93457991997
9.584,1500,-0.04874863,-0.01024176,-0.0018489,119.93457991997
9.594,1500,-0.16374863,-0.08024176,-0.0078489,119.93457991997
9.604,1500,-0.02974863,-0.03724176,0.0001511,119.93457991997
9.614,1500,0.04525137,-0.01624176,-0.0098489,119.93457991997
9.624,1500,-0.03074863,-0.02024176,-0.0648489,119.93457991997
9.634,1500,0.07125137,0.01475824,-0.0148489,119.93457991997
9.644,1500,0.19125137,0.08675824,0.1041511,119.93457991997
9.654,1500,-0.05974863,-0.03524176,0.0041511,119.93457991997
9.664,1500,0.17925137,0.00775824,0.0351511,119.93457991997
9.674,1500,0.01825137,0.04775824,0.1321511,119.93457991997
9.684,1500,-0.08874863,-0.02724176,-0.0218489,119.93457991997
9.694,1500,-0.06174863,-0.08024176,-0.1988489,119.93457991997
9.704,1500,-0.09174863,-0.01524176,0.0271511,119.93457991997
9.714,1500,-0.02174863,-0.03324176,-0.0178489,119.93457991997
9.724,1500,0.01525137,-0.02824176,0.0071511,119.93457991997
9.734,1500,-0.01974863,-0.02824176,0.0051511,119.93457991997
9.744,1500,-0.06574863,-0.03324176,0.0361511,119.93457991997
9.754,1500,-0.02974863,-0.06924176,-0.0018489,119.93457991997
9.764,1500,-0.01574863,-0.07024176,0.0081511,119.93457991997
9.774,1500,-0.01074863,-0.05324176,0.0241511,119.93457991997
9.784,1500,-0.07574863,-0.08124176,-0.0148489,119.93457991997
9.794,1500,-0.05574863,-0.07224176,-0.0318489,119.93457991997
9.804,1500,-0.05074863,-0.07124176,0.0541511,119.93457991997
9.814,1500,-0.06974863,-0.10424176,-0.0008489,119.93457991997
9.824,1500,-0.02174863,-0.07424176,0.0061511,119.93457991997
9.834,1500,-0.03474863,-0.11224176,0.0091511,119.93457991997
9.844,1500,-0.04374863,-0.12724176,0.0091511,119.93457991997
9.854,1500,-0.05374863,-0.13224176,-0.0098489,119.93457991997
9.864,1500,-0.05774863,-0.15624176,0.0091511,119.93457991997
9.874,1500,-0.01774863,-0.10824176,0.0131511,119.93457991997
9.884,1500,-0.15974863,-0.08024176,-0.0198489,119.93457991997
9.894,1500,-0.09574863,-0.22724176,-0.0928489,119.93457991997
9.904,1500,-0.06074863,-0.18724176,-0.0128489,119.93457991997
9.914,1500,-0.02674863,-0.17724176,0.0431511,119.93457991997
9.924,1500,0.07425137,-0.16324176,0.0471511,119.93457991997
9.934,1500,-0.02074863,-0.06824176,-0.0038489,119.93457991997
9.943,1500,-0.13174863,-0.05924176,-0.0548489,119.93457991997
9.954,1500,-0.00274863,-0.02524176,0.0481511,119.93457991997
9.964,1500,-0.09374863,0.01175824,0.0431511,119.93457991997
9.974,1500,-0.11474863,-0.04824176,-0.0018489,25.8021894481422
9.984,1500,0.05625137,-0.01224176,0.0281511,25.8021894481422
9.994,1500,-0.04974863,-0.02424176,0.0041511,25.8021894481422
10.004,1500,0.08725137,-0.02024176,0.0141511,25.8021894481422
10.014,1500,0.07225137,0.00675824,0.0381511,25.8021894481422
10.024,1500,-0.01874863,0.00475824,0.0041511,25.8021894481422
10.034,1500,0.01725137,0.00675824,-0.0068489,25.8021894481422
10.044,1500,0.02025137,0.00775824,0.0141511,25.8021894481422
10.054,1500,-0.06774863,-0.08524176,-0.0638489,25.8021894481422
10.064,1500,-0.03474863,-0.05624176,-0.0528489,25.8021894481422
10.074,1500,-0.05774863,-0.00424176,-0.0358489,25.8021894481422
10.084,1500,0.10525137,0.00475824,-0.0198489,25.8021894481422
10.094,1500,0.02225137,0.04175824,-0.0138489,25.8021894481422
10.104,1500,0.03625137,0.01875824,0.0151511,25.8021894481422
10.114,1500,-0.02174863,-0.01624176,0.0031511,25.8021894481422
10.124,1500,-0.03974863,-0.01724176,0.0091511,25.8021894481422
10.135,1500,-0.02974863,-0.00924176,-0.0058489,25.8021894481422
10.144,1500,0.02525137,-0.01124176,-0.0078489,25.8021894481422
10.154,1500,0.04225137,-0.02824176,-0.0178489,25.8021894481422
10.164,1500,0.02525137,-0.00724176,0.0251511,25.8021894481422
10.174,1500,0.10325137,0.00075824,-0.0308489,25.8021894481422
10.184,1500,-0.04274863,-0.01724176,-0.0098489,25.8021894481422
10.194,1500,-0.02874863,-0.02124176,-0.0018489,25.8021894481422
10.204,1500,-0.05574863,-0.01724176,0.0011511,25.8021894481422
10.214,1500,-0.03274863,-0.02924176,-0.0098489,25.8021894481422
10.224,1500,0.13825137,0.00675824,0.0141511,25.8021894481422
10.235,1500,0.02425137,-0.00124176,0.0091511,25.8021894481422
10.244,1500,-0.07074863,0.00475824,0.0511511,25.8021894481422
10.254,1500,-0.03974863,0.02275824,0.0211511,25.8021894481422
10.264,1500,-0.03574863,-0.02324176,-0.0058489,25.8021894481422
10.274,1500,-0.10274863,-0.06624176,-0.0378489,25.8021894481422
10.283,1500,0.05725137,0.00075824,0.0041511,25.8021894481422
10.294,1500,0.18125137,0.01275824,-0.0308489,25.8021894481422
10.304,1500,0.04225137,-0.05824176,-0.0788489,25.8021894481422
10.314,1500,0.01025137,0.00375824,0.0221511,25.8021894481422
10.324,1500,-0.11174863,-0.02924176,-0.0448489,25.8021894481422
10.334,1500,0.03725137,0.00475824,0.0191511,25.8021894481422
10.345,1500,0.05925137,0.01775824,-0.0668489,25.8021894481422
10.355,1500,-0.06974863,-0.00324176,-0.0488489,25.8021894481422
10.364,1500,0.06725137,0.02775824,-0.0148489,25.8021894481422
10.374,1500,-0.02674863,0.00875824,0.0281511,25.8021894481422
10.384,1500,-0.08574863,-0.00924176,0.0301511,25.8021894481422
10.394,1500,-0.07774863,-0.00224176,0.0421511,25.8021894481422
10.404,1500,-0.07474863,-0.00524176,0.0191511,25.8021894481422
10.414,1500,-0.12974863,-0.02124176,-0.0248489,25.8021894481422
10.424,1500,0.05725137,-0.02324176,-0.0208489,25.8021894481422
10.434,1500,-0.00374863,-0.02424176,-0.0078489,25.8021894481422
10.444,1500,-0.01274863,0.00975824,0.0771511,25.8021894481422
10.454,1500,-0.00774863,-0.03024176,-0.0138489,25.8021894481422
10.464,1500,0.09925137,0.00875824,-0.0238489,25.8021894481422
10.474,1500,0.01825137,-0.00324176,-0.0218489,25.8021894481422
10.484,1500,-0.09274863,-0.02424176,0.0071511,25.8021894481422
10.494,1500,0.00525137,-0.02624176,0.0391511,112.53963271421
10.504,1500,-0.06574863,-0.07324176,0.0351511,112.53963271421
10.514,1500,-0.08074863,-0.01724176,0.0251511,112.53963271421
10.524,1500,-0.04374863,-0.02124176,0.0731511,112.53963271421
10.534,1500,0.02425137,-0.02024176,0.0151511,112.53963271421
10.544,1500,0.06125137,0.01375824,0.1241511,112.53963271421
10.554,1500,0.03925137,-0.03924176,-0.1218489,112.53963271421
10.564,1500,0.02125137,0.00575824,0.0381511,112.53963271421
10.575,1500,0.04625137,0.09775824,0.1671511,112.53963271421
10.584,1500,-0.30774863,-0.05624176,-0.1208489,112.53963271421
10.594,1500,0.15525137,0.11675824,0.0531511,112.53963271421
10.604,1500,0.13425137,0.01975824,-0.1028489,112.53963271421
10.614,1500,0.15925137,0.07375824,-0.0798489,112.53963271421
10.624,1500,-0.14274863,-0.01124176,-0.0378489,112.53963271421
10.634,1500,0.03525137,0.10475824,0.0761511,112.53963271421
10.645,1500,0.00625137,0.06175824,-0.0408489,112.53963271421
10.655,1500,-0.10874863,0.02475824,-0.0358489,112.53963271421
10.665,1500,0.02825137,0.03175824,-0.0248489,112.53963271421
10.675,1500,0.11925137,0.03675824,-0.0088489,112.53963271421
10.685,1500,-0.01474863,0.00375824,-0.0308489,112.53963271421
10.695,1500,-0.09174863,-0.00124176,-0.0108489,112.53963271421
10.704,1500,0.02625137,0.01375824,0.0021511,112.53963271421
10.714,1500,0.04325137,0.01675824,0.0351511,112.53963271421
10.724,1500,-0.04674863,-0.00224176,0.0011511,112.53963271421
10.735,1500,-0.03274863,-0.00824176,-0.0118489,112.53963271421
10.744,1500,-0.02174863,0.01175824,0.0041511,112.53963271421
10.754,1500,0.01325137,-0.00824176,-0.0068489,112.53963271421
10.764,1500,-0.02774863,0.00475824,-0.0028489,112.53963271421
10.774,1500,-0.00174863,0.00275824,-0.0078489,112.53963271421
10.784,1500,-0.07674863,-0.02624176,-0.0178489,112.53963271421
10.794,1500,0.01125137,-0.02124176,-0.0418489,112.53963271421
10.805,1500,-0.13174863,-0.03624176,-0.0118489,112.53963271421
10.815,1500,-0.02374863,-0.02124176,-0.0338489,112.53963271421
10.825,1500,-0.04874863,0.00075824,0.0371511,112.53963271421
10.835,1500,-0.00574863,-0.00424176,0.0251511,112.53963271421
10.845,1500,-0.09774863,-0.03024176,0.0261511,112.53963271421
10.855,1500,-0.03474863,-0.00024176,0.0451511,112.53963271421
10.865,1500,0.07325137,0.01575824,0.0271511,112.53963271421
10.875,1500,0.00125137,0.00775824,0.0071511,112.53963271421
10.885,1500,0.01525137,0.01475824,0.0171511,112.53963271421
10.895,1500,0.00425137,0.00475824,0.0111511,112.53963271421
10.905,1500,0.03725137,-0.01024176,-0.0178489,112.53963271421
10.915,1500,0.05525137,-0.01924176,-0.0018489,112.53963271421
10.925,1500,0.04325137,-0.02324176,-0.0458489,112.53963271421
10.934,1500,-0.04974863,-0.03424176,-0.0428489,112.53963271421
10.944,1500,0.02025137,-0.01424176,-0.0408489,112.53963271421
10.955,1500,0.01125137,-0.03124176,-0.0468489,112.53963271421
10.965,1500,-0.08374863,-0.05124176,-0.0418489,112.53963271421
10.975,1500,0.00125137,0.01575824,0.0171511,112.53963271421
10.985,1500,-0.08974863,-0.02624176,0.0091511,112.53963271421
10.995,1500,-0.01374863,0.00475824,0.0191511,112.53963271421
11.005,1500,0.06125137,0.00275824,0.0211511,112.53963271421
11.014,1500,-0.04074863,-0.01524176,-0.0118489,58.9777963252989
11.024,1500,0.01825137,-0.00224176,-0.0088489,58.9777963252989
11.034,1500,0.05325137,-0.01024176,-0.0008489,58.9777963252989
11.044,1500,-0.03274863,-0.04124176,-0.0578489,58.9777963252989
11.054,1500,-0.01874863,-0.01524176,0.0141511,58.9777963252989
11.065,1500,-0.04674863,-0.03324176,-0.0208489,58.9777963252989
11.074,1500,0.03825137,0.00775824,0.0271511,58.9777963252989
11.085,1500,0.01625137,0.04075824,0.1161511,58.9777963252989
11.094,1500,-0.06874863,-0.02924176,-0.0178489,58.9777963252989
11.104,1500,-0.02674863,0.00775824,0.0721511,58.9777963252989
11.114,1500,-0.02374863,-0.02224176,-0.0038489,58.9777963252989
11.124,1500,-0.00074863,-0.00724176,0.0141511,58.9777963252989
11.135,1500,-0.05774863,0.00875824,0.0101511,58.9777963252989
11.144,1500,-0.02974863,-0.07124176,-0.1118489,58.9777963252989
11.155,1500,-0.07574863,-0.00824176,-0.0138489,58.9777963252989
11.164,1500,-0.00674863,-0.05524176,-0.0738489,58.9777963252989
11.174,1500,-0.07774863,-0.03024176,-0.0068489,58.9777963252989
11.185,1500,-0.00274863,-0.03324176,-0.0158489,58.9777963252989
11.195,1500,-0.09974863,-0.02224176,0.0061511,58.9777963252989
11.205,1500,-0.02874863,0.00175824,0.0451511,58.9777963252989
11.215,1500,0.08025137,-0.00524176,0.0241511,58.9777963252989
11.225,1500,-0.01174863,-0.01724176,0.0071511,58.9777963252989
11.235,1500,0.04825137,0.00575824,0.0141511,58.9777963252989
11.245,1500,0.02625137,-0.01424176,0.0001511,58.9777963252989
11.255,1500,0.07625137,0.01975824,0.0041511,58.9777963252989
11.264,1500,-0.02574863,-0.02524176,-0.0288489,58.9777963252989
11.274,1500,-0.01574863,-0.02824176,-0.0378489,58.9777963252989
11.284,1500,0.02425137,-0.01724176,-0.0028489,58.9777963252989
11.294,1500,-0.03174863,-0.03224176,-0.0378489,58.9777963252989
11.304,1500,-0.01474863,-0.02024176,-0.0228489,58.9777963252989
11.315,1500,0.01525137,0.00375824,0.0641511,58.9777963252989
11.324,1500,0.00925137,-0.03524176,-0.0288489,58.9777963252989
11.334,1500,0.15825137,0.03075824,0.0371511,58.9777963252989
11.344,1500,0.00025137,-0.04824176,-0.0488489,58.9777963252989
11.355,1500,0.04125137,-0.02924176,-0.0488489,58.9777963252989
11.364,1500,0.05725137,-0.01124176,0.0181511,58.9777963252989
11.375,1500,-0.03874863,-0.08224176,-0.1018489,58.9777963252989
11.385,1500,0.05925137,-0.00824176,0.0161511,58.9777963252989
11.395,1500,-0.04574863,-0.09424176,-0.1138489,58.9777963252989
11.405,1500,-0.04674863,0.00875824,0.0451511,58.9777963252989
11.415,1500,-0.03974863,-0.07324176,-0.1288489,58.9777963252989
11.424,1500,0.06525137,0.01175824,0.0091511,58.9777963252989
11.435,1500,-0.09674863,-0.08724176,-0.1458489,58.9777963252989
11.444,1500,-0.00174863,-0.00424176,0.0121511,58.9777963252989
11.455,1500,0.00225137,-0.00624176,0.0041511,58.9777963252989
11.465,1500,-0.08174863,-0.02524176,-0.0138489,58.9777963252989
11.475,1500,0.03925137,-0.00624176,-0.0048489,58.9777963252989
11.485,1500,-0.04974863,-0.01424176,-0.0188489,58.9777963252989
11.495,1500,0.01225137,-0.02024176,-0.0168489,58.9777963252989
11.505,1500,-0.04674863,-0.03724176,-0.0048489,58.9777963252989
11.515,1500,-0.02974863,-0.02324176,-0.0058489,58.9777963252989
11.525,1500,-0.01474863,-0.02624176,0.0241511,58.9777963252989
11.535,1500,-0.04374863,-0.01824176,-0.0078489,46.5646325938018
11.545,1500,0.01225137,-0.00324176,0.0181511,46.5646325938018
11.554,1500,0.03925137,0.01175824,0.0291511,46.5646325938018
11.565,1500,0.06525137,-0.00624176,0.0441511,46.5646325938018
11.575,1500,0.04025137,-0.01924176,-0.0078489,46.5646325938018
11.585,1500,-0.00374863,-0.04124176,-0.0498489,46.5646325938018
11.595,1500,0.00925137,-0.03624176,-0.0528489,46.5646325938018
11.605,1500,0.01425137,-0.01824176,-0.0468489,46.5646325938018
11.615,1500,0.06725137,-0.01424176,-0.0078489,46.5646325938018
11.625,1500,-0.08074863,-0.04824176,-0.0368489,46.5646325938018
11.635,1500,0.04225137,0.00075824,0.0231511,46.5646325938018
11.645,1500,-0.11474863,-0.04624176,-0.0188489,46.5646325938018
11.654,1500,0.02325137,0.01075824,0.0311511,46.5646325938018
11.665,1500,-0.08574863,-0.05124176,-0.0578489,46.5646325938018
11.675,1500,-0.01374863,-0.01124176,0.0201511,46.5646325938018
11.685,1500,0.05125137,0.02175824,0.0851511,46.5646325938018
11.695,1500,0.00625137,-0.02024176,0.0011511,46.5646325938018
11.704,1500,-0.00974863,-0.01724176,0.0011511,46.5646325938018
11.715,1500,-0.02674863,-0.04624176,-0.0168489,46.5646325938018
11.725,1500,-0.00574863,-0.00024176,0.0671511,46.5646325938018
11.734,1500,0.02525137,-0.00824176,0.0081511,46.5646325938018
11.745,1500,0.15325137,0.08175824,0.1471511,46.5646325938018
11.754,1500,0.05325137,-0.01624176,-0.0348489,46.5646325938018
11.765,1500,0.01425137,0.00475824,0.0611511,46.5646325938018
11.774,1500,-0.03874863,-0.02524176,-0.0438489,46.5646325938018
11.785,1500,-0.06374863,-0.06624176,-0.0908489,46.5646325938018
11.795,1500,-0.02674863,-0.00524176,0.0011511,46.5646325938018
11.805,1500,0.00325137,-0.06824176,-0.1228489,46.5646325938018
11.815,1500,-0.14174863,-0.03624176,-0.0158489,46.5646325938018
11.825,1500,0.05925137,-0.02124176,-0.0008489,46.5646325938018
11.835,1500,-0.09974863,-0.02524176,-0.0348489,46.5646325938018
11.845,1500,-0.05974863,-0.02724176,0.0071511,46.5646325938018
11.855,1500,-0.01774863,-0.01224176,0.0421511,46.5646325938018
11.865,1500,-0.01574863,0.00475824,0.0411511,46.5646325938018
11.875,1500,-0.02374863,-0.00324176,0.0471511,46.5646325938018
11.885,1500,0.06225137,0.01075824,0.0451511,46.5646325938018
11.895,1500,0.17925137,0.02275824,0.0571511,46.5646325938018
11.905,1500,-0.00974863,0.00175824,0.0121511,46.5646325938018
11.915,1500,0.17525137,0.02075824,0.0011511,46.5646325938018
11.925,1500,0.03425137,-0.04924176,-0.0758489,46.5646325938018
11.935,1500,0.01625137,-0.00724176,0.0071511,46.5646325938018
11.944,1500,-0.01074863,-0.01524176,-0.0128489,46.5646325938018
11.955,1500,0.01525137,-0.02524176,-0.0088489,46.5646325938018
11.964,1500,0.01625137,-0.00424176,-0.0048489,46.5646325938018
11.975,1500,-0.15874863,-0.02924176,0.0411511,46.5646325938018
11.985,1500,-0.06474863,-0.00424176,0.0341511,46.5646325938018
11.995,1500,0.05225137,0.01275824,-0.0018489,46.5646325938018
12.005,1500,-0.05674863,-0.04824176,-0.0528489,46.5646325938018
12.015,1500,0.08725137,0.03575824,0.0441511,46.5646325938018
12.026,1500,-0.03174863,-0.03624176,-0.0568489,46.5646325938018
12.035,1500,0.10325137,-0.00024176,-0.0178489,46.5646325938018
12.045,1500,0.00725137,-0.02724176,-0.0228489,42.3770517439857
12.055,1500,0.06725137,-0.06224176,-0.1368489,42.3770517439857
12.065,1500,-0.02274863,-0.02824176,-0.0178489,42.3770517439857
12.075,1500,-0.03174863,-0.06524176,-0.1168489,42.3770517439857
12.085,1500,-0.02574863,-0.01124176,-0.0048489,42.3770517439857
12.095,1500,-0.03674863,-0.03624176,-0.0348489,42.3770517439857
12.105,1500,0.12025137,0.01775824,0.0321511,42.3770517439857
12.115,1500,-0.05974863,-0.02224176,0.0301511,42.3770517439857
12.125,1500,0.02625137,-0.01924176,0.0231511,42.3770517439857
12.134,1500,-0.03574863,0.01175824,0.0591511,42.3770517439857
12.145,1500,-0.12574863,-0.00724176,-0.0028489,42.3770517439857
12.155,1500,0.00125137,-0.00824176,-0.0328489,42.3770517439857
12.165,1500,0.00625137,-0.00924176,-0.0218489,42.3770517439857
12.175,1500,0.02925137,-0.05224176,-0.0438489,42.3770517439857
12.184,1500,-0.10574863,-0.02524176,-0.0028489,42.3770517439857
12.195,1500,-0.06074863,-0.02724176,-0.0188489,42.3770517439857
12.205,1500,-0.07074863,-0.01324176,-0.0028489,42.3770517439857
12.215,1500,-0.00674863,-0.00224176,-0.0128489,42.3770517439857
12.225,1500,-0.00974863,-0.02224176,0.0341511,42.3770517439857
12.235,1500,0.03825137,0.00575824,0.0421511,42.3770517439857
12.245,1500,0.08225137,0.00475824,0.0201511,42.3770517439857
12.255,1500,-0.04474863,-0.01724176,-0.0118489,42.3770517439857
12.265,1500,0.02325137,-0.01124176,-0.0198489,42.3770517439857
12.275,1500,0.00325137,-0.01324176,-0.0148489,42.3770517439857
12.285,1500,-0.06174863,-0.03024176,-0.0538489,42.3770517439857
12.295,1500,0.08125137,0.01775824,0.0271511,42.3770517439857
12.305,1500,-0.07074863,-0.02524176,0.0231511,42.3770517439857
12.315,1500,0.02025137,0.01275824,0.0451511,42.3770517439857
12.325,1500,0.02125137,0.01375824,0.1051511,42.3770517439857
12.335,1500,-0.03674863,-0.03124176,-0.0148489,42.3770517439857
12.346,1500,-0.02974863,0.02575824,0.1311511,42.3770517439857
12.356,1500,-0.02974863,-0.01324176,0.0251511,42.3770517439857
12.365,1500,0.03625137,-0.01224176,-0.0178489,42.3770517439857
12.375,1500,0.02825137,-0.03324176,-0.0058489,42.3770517439857
12.385,1500,-0.02474863,-0.03624176,0.0031511,42.3770517439857
12.395,1500,0.01125137,-0.02324176,0.0231511,42.3770517439857
12.405,1500,0.02625137,-0.00324176,0.0191511,42.3770517439857
12.416,1500,0.00425137,-0.01324176,0.0031511,42.3770517439857
12.425,1500,-0.00474863,-0.06924176,-0.0878489,42.3770517439857
12.435,1500,-0.15274863,-0.03924176,-0.0168489,42.3770517439857
12.445,1500,0.07025137,-0.02224176,0.0161511,42.3770517439857
12.455,1500,0.12025137,-0.02524176,0.0531511,42.3770517439857
12.465,1500,-0.02874863,-0.02724176,-0.0078489,42.3770517439857
12.476,1500,0.05225137,-0.02824176,-0.0458489,42.3770517439857
12.485,1500,-0.00574863,-0.03124176,-0.0238489,42.3770517439857
12.495,1500,-0.01574863,-0.02924176,0.0371511,42.3770517439857
12.505,1500,0.01725137,-0.03624176,0.0151511,42.3770517439857
12.514,1500,0.04125137,-0.03024176,0.0251511,42.3770517439857
12.525,1500,-0.13874863,-0.06624176,0.0201511,42.3770517439857
12.535,1500,-0.08674863,-0.01824176,0.0761511,42.3770517439857
12.545,1500,-0.08374863,-0.05624176,-0.0698489,42.3770517439857
12.555,1500,-0.03274863,-0.04824176,-0.0388489,42.3770517439857
12.565,1500,0.12625137,-0.06624176,-0.0968489,42.3770517439857
12.575,1500,-0.06874863,-0.04924176,-0.0528489,62.0387111456555
12.585,1500,-0.04074863,-0.08124176,-0.0768489,62.0387111456555
12.595,1500,-0.05774863,-0.06324176,0.0111511,62.0387111456555
12.605,1500,0.04525137,-0.04124176,0.0391511,62.0387111456555
12.615,1500,0.14825137,-0.04224176,0.0661511,62.0387111456555
12.624,1500,-0.13774863,-0.10724176,-0.0688489,62.0387111456555
12.635,1500,-0.05674863,-0.05624176,-0.0118489,62.0387111456555
12.645,1500,0.07225137,-0.03924176,-0.0088489,62.0387111456555
12.655,1500,0.05625137,-0.05824176,0.0131511,62.0387111456555
12.665,1500,-0.15274863,-0.03124176,0.0041511,62.0387111456555
12.675,1500,0.15325137,-0.02224176,-0.0448489,62.0387111456555
12.685,1500,0.15725137,0.05875824,0.1711511,62.0387111456555
12.695,1500,-0.26274863,-0.06224176,0.0511511,62.0387111456555
12.704,1500,0.01525137,0.04975824,0.0821511,62.0387111456555
12.715,1500,-0.13274863,-0.02324176,0.0731511,62.0387111456555
12.725,1500,-0.15974863,-0.05724176,-0.1248489,62.0387111456555
12.735,1500,-0.19374863,0.01375824,-0.0148489,62.0387111456555
12.745,1500,0.05225137,-0.04524176,-0.0788489,62.0387111456555
12.755,1500,0.09125137,0.03575824,0.0251511,62.0387111456555
12.765,1500,-0.02674863,-0.01824176,-0.0078489,62.0387111456555
12.775,1500,0.00425137,-0.01524176,-0.0028489,62.0387111456555
12.785,1500,-0.05574863,-0.01424176,-0.0158489,62.0387111456555
12.795,1500,0.15925137,0.03875824,0.0911511,62.0387111456555
12.805,1500,0.13825137,0.01675824,-0.0088489,62.0387111456555
12.815,1500,0.05225137,0.10475824,0.0911511,62.0387111456555
12.825,1500,-0.10074863,-0.00924176,-0.0148489,62.0387111456555
12.835,1500,0.02625137,0.01675824,-0.0488489,62.0387111456555
12.845,1500,-0.05774863,0.06175824,-0.0288489,62.0387111456555
12.855,1500,-0.04074863,0.03675824,0.0281511,62.0387111456555
12.866,1500,0.01725137,0.02675824,0.0451511,62.0387111456555
12.876,1500,-0.09374863,0.04975824,0.0211511,62.0387111456555
12.886,1500,-0.01574863,0.03375824,0.0421511,62.0387111456555
12.896,1500,0.05625137,0.01875824,0.0161511,62.0387111456555
12.906,1500,-0.01174863,0.01375824,0.0051511,62.0387111456555
12.915,1500,0.07625137,-0.00424176,0.0051511,62.0387111456555
12.925,1500,-0.05474863,-0.00724176,-0.0158489,62.0387111456555
12.935,1500,-0.08574863,0.00975824,-0.0068489,62.0387111456555
12.945,1500,0.00625137,-0.01424176,0.0001511,62.0387111456555
12.955,1500,0.07625137,0.04475824,0.0361511,62.0387111456555
12.965,1500,0.02925137,0.02775824,0.0101511,62.0387111456555
12.976,1500,0.05825137,-0.00424176,0.0161511,62.0387111456555
12.986,1500,0.00425137,0.01475824,0.0041511,62.0387111456555
12.996,1500,-0.06974863,0.00575824,-0.0338489,62.0387111456555
13.006,1500,-0.08474863,-0.01024176,-0.0178489,62.0387111456555
13.015,1500,-0.04374863,0.02075824,-0.0028489,62.0387111456555
13.025,1500,-0.03474863,0.01875824,-0.0098489,62.0387111456555
13.035,1500,-0.00674863,-0.00424176,-0.0138489,62.0387111456555
13.045,1500,-0.09774863,0.01375824,0.0041511,62.0387111456555
13.055,1500,-0.02374863,-0.00124176,0.0001511,62.0387111456555
13.065,1500,-0.01974863,-0.01824176,-0.0178489,62.0387111456555
13.075,1500,0.03725137,0.01175824,0.0271511,62.0387111456555
13.085,1500,0.00925137,-0.00624176,-0.0198489,62.0387111456555
13.095,1500,-0.05774863,0.02175824,0.0251511,138.928361060258
13.106,1500,-0.05174863,-0.00824176,-0.0048489,138.928361060258
13.116,1500,0.03325137,0.00575824,0.0601511,138.928361060258
13.126,1500,0.09625137,0.02075824,0.0351511,138.928361060258
13.136,1500,-0.02774863,-0.00424176,0.0451511,138.928361060258
13.146,1500,0.00525137,-0.01224176,0.0211511,138.928361060258
13.156,1500,-0.04174863,0.00175824,-0.0248489,138.928361060258
13.166,1500,-0.03374863,-0.01924176,-0.0068489,138.928361060258
13.176,1500,0.03425137,-0.01624176,-0.0028489,138.928361060258
13.186,1500,0.01225137,0.02175824,-0.0018489,138.928361060258
13.196,1500,-0.03574863,0.00375824,-0.0288489,138.928361060258
13.205,1500,-0.02274863,-0.01124176,-0.0348489,138.928361060258
13.216,1500,-0.04074863,0.03675824,0.0061511,138.928361060258
13.226,1500,-0.07274863,-0.00924176,0.0091511,138.928361060258
13.236,1500,0.01825137,-0.04824176,0.0271511,138.928361060258
13.246,1500,-0.00074863,-0.01724176,0.0171511,138.928361060258
13.256,1500,-0.13374863,-0.06524176,-0.0048489,138.928361060258
13.266,1500,-0.03574863,-0.07024176,0.0041511,138.928361060258
13.275,1500,0.03025137,-0.07024176,-0.0068489,138.928361060258
13.285,1500,-0.18274863,-0.10224176,-0.0208489,138.928361060258
13.296,1500,-0.05674863,-0.08224176,0.0181511,138.928361060258
13.306,1500,-0.03674863,-0.06824176,0.0061511,138.928361060258
13.316,1500,0.09525137,-0.05324176,-0.0158489,138.928361060258
13.326,1500,-0.07274863,-0.03324176,-0.0058489,138.928361060258
13.336,1500,-0.01774863,-0.00224176,0.0161511,138.928361060258
13.346,1500,0.02825137,0.02475824,-0.0048489,138.928361060258
13.356,1500,0.00325137,0.06075824,-0.0058489,138.928361060258
13.366,1500,0.14725137,0.07075824,-0.0928489,138.928361060258
13.375,1500,0.01125137,0.05875824,-0.0468489,138.928361060258
13.385,1500,0.04725137,0.06275824,-0.0058489,138.928361060258
13.395,1500,-0.00174863,0.03475824,-0.0068489,138.928361060258
13.405,1500,0.03125137,0.04575824,0.0061511,138.928361060258
13.416,1500,0.02625137,0.04075824,0.0141511,138.928361060258
13.426,1500,0.06325137,0.05375824,-0.0048489,138.928361060258
13.436,1500,-0.00674863,0.03975824,-0.0248489,138.928361060258
13.445,1500,0.01925137,0.01775824,0.0001511,138.928361060258
13.456,1500,0.07525137,0.00875824,-0.0028489,138.928361060258
13.465,1500,-0.13774863,-0.04324176,-0.0458489,138.928361060258
13.475,1500,-0.05074863,0.02375824,0.0171511,138.928361060258
13.485,1500,-0.02474863,0.04775824,0.0121511,138.928361060258
13.496,1500,0.08725137,0.00975824,0.0171511,138.928361060258
13.506,1500,0.12725137,0.03175824,0.0471511,138.928361060258
13.516,1500,-0.01174863,-0.01024176,-0.0528489,138.928361060258
13.526,1500,-0.00774863,-0.01824176,-0.0178489,138.928361060258
13.536,1500,-0.04674863,-0.01724176,-0.0548489,138.928361060258
13.545,1500,-0.07974863,-0.00024176,-0.0388489,138.928361060258
13.556,1500,-0.04174863,0.02375824,0.0281511,138.928361060258
13.566,1500,-0.01274863,0.02475824,-0.0128489,138.928361060258
13.576,1500,-0.03474863,-0.01024176,0.0251511,138.928361060258
13.586,1500,0.01425137,-0.00624176,0.0221511,138.928361060258
13.596,1500,-0.01974863,0.03675824,-0.0158489,138.928361060258
13.606,1500,0.03725137,0.02075824,-0.0028489,138.928361060258
13.616,1500,-0.05074863,0.02475824,0.0081511,153.485544660261
13.626,1500,-0.00474863,0.01875824,-0.0008489,153.485544660261
13.635,1500,-0.01474863,-0.01324176,0.0091511,153.485544660261
13.645,1500,0.02725137,0.04675824,0.0391511,153.485544660261
13.655,1500,-0.00374863,0.01875824,0.0011511,153.485544660261
13.666,1500,0.03725137,-0.00324176,-0.0078489,153.485544660261
13.676,1500,-0.01774863,0.00675824,-0.0128489,153.485544660261
13.686,1500,-0.03374863,-0.02224176,-0.0298489,153.485544660261
13.696,1500,-0.05674863,-0.01224176,-0.0018489,153.485544660261
13.706,1500,-0.04674863,0.02975824,0.0221511,153.485544660261
13.716,1500,-0.14774863,-0.01424176,-0.0268489,153.485544660261
13.726,1500,0.00725137,0.02575824,0.0321511,153.485544660261
13.735,1500,0.02925137,0.02575824,0.0121511,153.485544660261
13.746,1500,-0.00674863,-0.00624176,-0.0038489,153.485544660261
13.755,1500,-0.01074863,-0.02324176,-0.0068489,153.485544660261
13.765,1500,0.00725137,0.04775824,0.0281511,153.485544660261
13.775,1500,-0.03674863,0.02775824,0.0041511,153.485544660261
13.785,1500,0.01425137,0.00175824,-0.0118489,153.485544660261
13.796,1500,0.04425137,0.05175824,0.0691511,153.485544660261
13.805,1500,-0.05174863,-0.02124176,0.0231511,153.485544660261
13.816,1500,0.01925137,0.00875824,-0.0098489,153.485544660261
13.825,1500,0.12625137,0.07275824,0.0581511,153.485544660261
13.836,1500,-0.04274863,-0.03024176,-0.0128489,153.485544660261
13.846,1500,-0.00574863,0.00875824,-0.0098489,153.485544660261
13.855,1500,-0.08674863,-0.01224176,-0.0178489,153.485544660261
13.866,1500,-0.06874863,-0.00624176,0.0351511,153.485544660261
13.876,1500,0.02725137,0.00675824,0.0051511,153.485544660261
13.886,1500,0.00225137,-0.01324176,-0.0038489,153.485544660261
13.896,1500,0.00825137,-0.00324176,0.0231511,153.485544660261
13.906,1500,0.01025137,-0.04524176,-0.0098489,153.485544660261
13.916,1500,-0.04574863,-0.07524176,0.0051511,153.485544660261
13.926,1500,-0.00774863,-0.04824176,0.0471511,153.485544660261
13.935,1500,-0.02474863,-0.05124176,0.0141511,153.485544660261
13.946,1500,0.01825137,-0.08124176,0.0141511,153.485544660261
13.956,1500,-0.08374863,-0.07824176,0.0221511,153.485544660261
13.965,1500,0.13725137,-0.06724176,0.0061511,153.485544660261
13.976,1500,-0.00274863,-0.14524176,-0.1438489,153.485544660261
13.985,1500,0.14225137,-0.02624176,-0.0208489,153.485544660261
13.996,1500,-0.01674863,-0.05324176,-0.0548489,153.485544660261
14.005,1500,-0.02274863,0.05775824,0.1391511,153.485544660261
14.015,1500,-0.04474863,-0.00524176,-0.1688489,153.485544660261
14.026,1500,0.01025137,0.08075824,-0.0958489,153.485544660261
14.035,1500,-0.00774863,0.04775824,-0.0998489,153.485544660261
14.046,1500,0.01425137,0.04575824,-0.1268489,153.485544660261
14.056,1500,-0.02474863,0.02275824,-0.1298489,153.485544660261
14.066,1500,-0.14074863,0.00675824,-0.0158489,153.485544660261
14.075,1500,0.12025137,0.06275824,0.0901511,153.485544660261
14.086,1500,-0.02074863,0.01675824,-0.0058489,153.485544660261
14.095,1500,0.03225137,-0.00924176,-0.0078489,153.485544660261
14.106,1500,0.14625137,0.13675824,0.0971511,153.485544660261
14.116,1500,0.27225137,0.05175824,0.0591511,153.485544660261
14.126,1500,-0.02774863,0.06275824,0.1051511,153.485544660261
14.135,1500,0.09125137,0.09375824,0.1671511,169.186249087006
14.146,1500,0.20525137,0.08975824,0.2951511,169.186249087006
14.156,1500,0.31125137,0.00675824,0.1471511,169.186249087006
14.166,1500,0.13925137,0.03775824,0.1431511,169.186249087006
14.176,1500,0.10025137,0.04375824,0.2131511,169.186249087006
14.186,1500,-0.21974863,-0.05824176,-0.0048489,169.186249087006
14.196,1500,-0.03874863,0.02175824,-0.0038489,169.186249087006
14.206,1500,-0.18474863,-0.03124176,-0.0708489,169.186249087006
14.216,1500,-0.17474863,-0.03324176,-0.1228489,169.186249087006
14.225,1500,-0.29974863,-0.05824176,-0.0458489,169.186249087006
14.236,1500,-0.10374863,0.00575824,-0.0098489,169.186249087006
14.245,1500,-0.06074863,0.03275824,-0.0018489,169.186249087006
14.256,1500,-0.08474863,-0.09824176,-0.1638489,169.186249087006
14.266,1500,0.09525137,-0.00224176,-0.0088489,169.186249087006
14.276,1500,-0.03574863,0.00275824,-0.0918489,169.186249087006
14.286,1500,-0.05374863,-0.03224176,-0.1198489,169.186249087006
14.296,1500,0.29225137,0.07175824,-0.0208489,169.186249087006
14.306,1500,0.09325137,0.07675824,-0.1608489,169.186249087006
14.316,1500,-0.02274863,-0.02624176,-0.1478489,169.186249087006
14.326,1500,0.00425137,-0.00624176,-0.0138489,169.186249087006
14.336,1500,0.20025137,0.02375824,0.1301511,169.186249087006
14.347,1500,0.20225137,0.00175824,-0.0728489,169.186249087006
14.355,1500,0.02325137,0.04975824,0.1021511,169.186249087006
14.366,1500,-0.04674863,0.01975824,0.0801511,169.186249087006
14.376,1500,0.28725137,0.12975824,0.1721511,169.186249087006
14.386,1500,0.17025137,0.05075824,-0.0528489,169.186249087006
14.396,1500,0.00425137,0.00575824,0.0671511,169.186249087006
14.406,1500,0.06125137,0.05975824,0.2351511,169.186249087006
14.416,1500,-0.12674863,-0.04624176,0.1091511,169.186249087006
14.426,1500,0.10525137,0.00975824,0.1471511,169.186249087006
14.435,1500,0.06525137,0.07575824,0.1731511,169.186249087006
14.446,1500,-0.16374863,-0.05124176,-0.0188489,169.186249087006
14.455,1500,-0.33474863,-0.03124176,-0.1758489,169.186249087006
14.466,1500,-0.16474863,-0.04224176,-0.1208489,169.186249087006
14.476,1500,-0.25874863,-0.06524176,-0.2138489,169.186249087006
14.486,1500,-0.00074863,-0.01424176,-0.2048489,169.186249087006
14.496,1500,-0.14574863,0.00175824,-0.1088489,169.186249087006
14.506,1500,-0.00774863,-0.02724176,-0.0708489,169.186249087006
14.516,1500,-0.18974863,-0.01724176,-0.0338489,169.186249087006
14.526,1500,0.03625137,-0.03324176,-0.1618489,169.186249087006
14.537,1500,0.01525137,0.00275824,-0.1648489,169.186249087006
14.546,1500,-0.01674863,-0.02924176,-0.1078489,169.186249087006
14.557,1500,0.05925137,0.04475824,0.0401511,169.186249087006
14.565,1500,0.11425137,0.14475824,0.0721511,169.186249087006
14.576,1500,0.13025137,0.05475824,0.0001511,169.186249087006
14.586,1500,-0.08674863,0.05175824,-0.1058489,169.186249087006
14.595,1500,0.05025137,0.12775824,0.2091511,169.186249087006
14.606,1500,0.08225137,0.16075824,0.1641511,169.186249087006
14.616,1500,0.09725137,0.13075824,-0.0468489,169.186249087006
14.625,1500,0.11425137,0.12575824,-0.0008489,169.186249087006
14.636,1500,0.16225137,0.13875824,0.0161511,169.186249087006
14.646,1500,0.09025137,0.14375824,0.0251511,169.186249087006
14.656,1500,0.06825137,0.11075824,-0.0008489,169.186249087006
14.666,1500,0.03125137,0.07875824,-0.0078489,128.243979616293
14.675,1500,0.02925137,0.06675824,-0.0118489,128.243979616293
14.686,1500,0.04625137,0.05575824,-0.0168489,128.243979616293
14.696,1500,0.04225137,0.04375824,-0.0088489,128.243979616293
14.705,1500,0.01725137,0.02875824,-0.0038489,128.243979616293
14.716,1500,0.01525137,0.02275824,-0.0028489,128.243979616293
14.726,1500,0.00825137,0.01175824,-0.0048489,128.243979616293
14.735,1500,-0.00774863,0.00575824,-0.0078489,128.243979616293
14.746,1500,0.00625137,0.01075824,0.0031511,128.243979616293
14.756,1500,0.01025137,0.01175824,0.0021511,128.243979616293
14.766,1500,0.00925137,0.00775824,-0.0018489,128.243979616293
14.776,1500,0.00625137,0.00475824,0.0021511,128.243979616293
14.786,1500,-0.00474863,0.00475824,-0.0028489,128.243979616293
14.796,1500,-0.00674863,0.00175824,-0.0008489,128.243979616293
14.806,1500,-0.00474863,0.00175824,0.0041511,128.243979616293
14.815,1500,-0.00274863,0.00275824,0.0001511,128.243979616293
14.826,1500,-0.00174863,0.00775824,-0.0028489,128.243979616293
14.836,1500,-0.00174863,-0.00324176,-0.0028489,128.243979616293
14.846,1500,-0.00374863,0.00175824,-0.0108489,128.243979616293
14.855,1500,0.00325137,0.00675824,-0.0038489,128.243979616293
14.866,1500,0.01025137,0.00375824,0.0031511,128.243979616293
14.876,1500,0.00725137,0.00475824,0.0011511,128.243979616293
14.886,1500,0.01325137,0.00775824,-0.0058489,128.243979616293
14.896,1500,0.00525137,0.00075824,-0.0008489,128.243979616293
14.906,1500,0.00025137,-0.00424176,-0.0018489,128.243979616293
14.916,1500,-0.00374863,0.00175824,-0.0048489,128.243979616293
14.926,1500,0.00425137,0.00775824,-0.0008489,128.243979616293
14.936,1500,-0.00074863,0.00575824,0.0041511,128.243979616293
14.946,1500,-0.00274863,0.00275824,0.0051511,128.243979616293
14.956,1500,-0.00474863,0.00575824,-0.0008489,128.243979616293
14.967,1500,-0.00274863,-0.00124176,0.0031511,128.243979616293
14.977,1500,0.00025137,0.00075824,-0.0038489,128.243979616293
14.986,1500,0.01025137,0.00775824,-0.0028489,128.243979616293
14.996,1500,0.00225137,0.00775824,0.0011511,128.243979616293
15.006,1500,0.00425137,0.00375824,-0.0038489,128.243979616293
15.016,1500,0.00325137,0.00075824,-0.0028489,128.243979616293
15.026,1500,0.00125137,0.00475824,-0.0028489,128.243979616293
15.036,1500,0.00125137,0.00575824,0.0001511,128.243979616293
15.046,1500,0.00625137,0.00175824,0.0021511,128.243979616293
15.056,1500,0.00225137,0.00475824,0.0041511,128.243979616293
15.066,1500,0.00025137,0.00975824,0.0051511,128.243979616293
15.076,1500,-0.00274863,-0.00524176,0.0021511,128.243979616293
15.086,1500,0.00225137,-0.00224176,-0.0028489,128.243979616293
15.096,1500,0.00625137,0.00575824,-0.0048489,128.243979616293
15.105,1500,0.00625137,0.00275824,0.0021511,128.243979616293
15.116,1500,0.00525137,0.00175824,0.0051511,128.243979616293
15.126,1500,0.00225137,0.00375824,0.0001511,128.243979616293
15.136,1500,0.00025137,0.00375824,-0.0008489,128.243979616293
15.146,1500,0.00225137,0.00275824,0.0011511,128.243979616293
15.156,1500,-0.00074863,0.00775824,-0.0008489,128.243979616293
15.166,1500,-0.00174863,0.00475824,0.0021511,128.243979616293
15.175,1500,-0.00574863,0.00075824,-0.0008489,0
15.186,1500,-0.00074863,0.00475824,-0.0018489,0
15.196,1500,0.00025137,0.00475824,-0.0018489,0
15.206,1500,0.00825137,0.00075824,-0.0078489,0
15.216,1500,0.00625137,0.00675824,-0.0038489,0
15.226,1500,0.00625137,0.00475824,-0.0038489,0
15.236,1500,0.00525137,-0.00024176,0.0021511,0
15.246,1500,0.00225137,-0.00024176,0.0031511,0
15.256,1500,-0.00774863,0.00875824,-0.0038489,0
15.265,1500,-0.00074863,0.00475824,0.0041511,0
15.276,1500,0.00125137,0.00375824,0.0021511,0
15.286,1500,0.00425137,0.00675824,-0.0008489,0
15.296,1500,-0.00274863,0.00575824,-0.0058489,0
15.306,1500,0.00125137,-0.00124176,0.0021511,0
15.317,1500,0.00625137,-0.00124176,-0.0038489,0
15.327,1500,0.00825137,0.00675824,-0.0018489,0
15.337,1500,0.00225137,0.00475824,-0.0038489,0
15.346,1500,-0.00174863,0.00075824,-0.0018489,0
15.357,1500,0.00625137,0.00075824,0.0011511,0
15.367,1500,-0.00474863,0.00175824,-0.0018489,0
15.377,1500,0.00125137,0.00475824,-0.0028489,0
15.386,1500,-0.00174863,0.00675824,0.0001511,0
15.396,1500,-0.00074863,0.00275824,0.0001511,0
15.406,1500,-0.00274863,0.00075824,0.0001511,0
15.416,1500,-0.00374863,0.00475824,-0.0018489,0
15.426,1500,0.00525137,0.00075824,-0.0008489,0
15.436,1500,0.00525137,0.00175824,0.0021511,0
15.446,1500,0.00425137,0.00475824,-0.0058489,0
15.456,1500,0.00725137,0.00675824,-0.0028489,0
15.466,1500,0.00225137,0.00375824,-0.0008489,0
15.476,1500,-0.00274863,-0.00124176,0.0021511,0
15.487,1500,-0.00374863,0.00375824,-0.0018489,0
15.496,1500,-0.00374863,0.00675824,0.0021511,0
15.506,1500,0.00025137,-0.00224176,0.0061511,0
15.517,1500,0.00225137,-0.00024176,0.0011511,0
15.527,1500,0.00125137,0.00075824,0.0001511,0
15.537,1500,0.00225137,-0.00324176,-0.0068489,0
15.547,1500,0.00725137,-0.00024176,0.0041511,0
15.557,1500,0.00725137,0.00475824,0.0031511,0
15.566,1500,0.00525137,0.00675824,-0.0028489,0
15.576,1500,-0.00474863,0.00175824,-0.0018489,0
15.586,1500,0.00925137,0.00375824,-0.0028489,0
15.596,1500,0.00925137,0.00575824,-0.0008489,0
15.606,1500,-0.00574863,0.00475824,-0.0048489,0
15.617,1500,0.00425137,0.00175824,-0.0008489,0
15.627,1500,-0.00174863,0.00075824,0.0011511,0
15.637,1500,-0.00574863,0.00475824,-0.0028489,0
15.647,1500,-0.00674863,0.00775824,-0.0078489,0
15.657,1500,-0.00174863,0.00475824,-0.0008489,0
15.667,1500,0.00725137,0.00575824,0.0001511,0
15.677,1500,0.00325137,0.00275824,0.0011511,0
15.686,1500,0.00325137,0.00375824,-0.0008489,0
15.696,1500,0.01125137,0.00175824,0.0021511,0
15.707,1500,0.00125137,-0.00024176,0.0041511,0
15.716,1500,0.00025137,0.00175824,-0.0018489,0
15.726,1500,0.00025137,0.00675824,-0.0048489,0
15.736,1500,-0.00774863,0.00275824,-0.0008489,0
15.747,1500,0.00125137,-0.00024176,0.0011511,0
15.756,1500,0.00125137,0.00575824,0.0001511,0
15.766,1500,-0.00074863,0.00375824,-0.0048489,0
15.777,1500,0.00525137,0.00075824,0.0041511,0
15.786,1500,0.00925137,0.00075824,-0.0008489,0
15.796,1500,0.00725137,0.00575824,-0.0048489,0
15.806,1500,0.00125137,0.00575824,-0.0028489,0
15.816,1500,0.00025137,0.00075824,-0.0008489,0
15.827,1500,0.00525137,0.00575824,-0.0018489,0
15.837,1500,0.00025137,0.00575824,-0.0008489,0
15.847,1500,0.00025137,0.00275824,0.0011511,0
15.857,1500,-0.00474863,0.00175824,-0.0018489,0
15.867,1500,0.00025137,-0.00024176,-0.0028489,0
15.877,1500,-0.00574863,0.00275824,-0.0048489,0
15.887,1500,0.00225137,0.00375824,0.0021511,0
15.896,1500,0.00025137,0.00175824,0.0031511,0
15.906,1500,0.01225137,0.00375824,0.0041511,0
15.916,1500,0.00225137,0.00175824,-0.0018489,0
15.926,1500,0.00425137,0.00175824,-0.0038489,0
15.936,1500,0.00125137,-0.00324176,-0.0038489,0
15.947,1500,-0.00074863,0.00475824,-0.0008489,0
15.957,1500,0.00725137,0.00575824,0.0031511,0
15.967,1500,-0.00174863,0.00275824,0.0031511,0
15.977,1500,-0.00574863,0.00075824,-0.0028489,0
15.987,1500,-0.00174863,0.00275824,-0.0028489,0
15.997,1500,-0.00374863,0.00775824,-0.0068489,0
16.007,1500,0.00425137,0.00275824,-0.0008489,0
16.016,1500,0.00325137,0.00575824,0.0001511,0
16.026,1500,0.00625137,0.00375824,0.0031511,0
16.037,1500,0.01125137,0.00775824,-0.0008489,0
16.046,1500,0.00425137,0.00175824,-0.0008489,0
16.056,1500,0.00225137,0.00475824,-0.0028489,0
16.066,1500,0.00625137,0.00475824,0.0011511,0
16.076,1500,0.00725137,0.00075824,-0.0038489,0
16.087,1500,0.00025137,-0.00024176,-0.0068489,0
16.096,1500,-0.00174863,0.00175824,-0.0038489,0
16.107,1500,-0.00074863,0.00575824,0.0011511,0
16.117,1500,-0.00274863,0.00275824,-0.0008489,0
16.127,1500,-0.00274863,0.00675824,-0.0058489,0
16.136,1500,0.00625137,0.00475824,0.0021511,0
16.146,1500,0.00725137,-0.00124176,0.0041511,0
16.156,1500,0.00625137,0.00975824,-0.0008489,0
16.167,1500,0.00225137,0.00775824,-0.0028489,0
16.177,1500,0.00425137,0.00075824,0.0021511,0
16.187,1500,-0.00674863,0.00075824,0.0061511,0
16.197,1500,0.00025137,0.00375824,0.0001511,0
16.206,1500,-0.00374863,0.00675824,-0.0008489,0
16.216,1500,-0.00274863,-0.00024176,0.0021511,0
16.227,1500,-0.00274863,0.00475824,-0.0028489,0
16.236,1500,0.00025137,0.00475824,0.0001511,0
16.247,1500,-0.00074863,0.00375824,-0.0038489,0
16.256,1500,0.00125137,0.00475824,0.0001511,0
16.266,1500,0.00425137,0.00375824,-0.0038489,0
16.277,1500,0.00825137,-0.00024176,0.0011511,0
16.286,1500,0.00025137,0.00475824,0.0021511,0
16.296,1500,0.00125137,0.00375824,-0.0048489,0
16.306,1500,-0.00074863,-0.00024176,-0.0008489,0
16.316,1500,-0.00174863,0.00075824,-0.0008489,0
16.327,1500,-0.00074863,0.00675824,-0.0008489,0
16.337,1500,-0.00074863,0.00375824,-0.0038489,0
16.347,1500,0.00025137,-0.00124176,0.0041511,0
16.357,1500,-0.00174863,0.00875824,-0.0028489,0
16.367,1500,0.00125137,0.00275824,0.0011511,0
16.377,1500,0.00525137,0.00375824,-0.0028489,0
16.386,1500,0.00625137,-0.00124176,0.0031511,0
16.396,1500,0.00125137,0.00775824,-0.0018489,0
16.407,1500,0.00425137,0.00875824,-0.0038489,0
16.416,1500,0.00625137,-0.00224176,0.0011511,0
16.426,1500,0.00525137,0.00375824,-0.0018489,0
16.437,1500,-0.00074863,0.00575824,0.0001511,0
16.446,1500,-0.00174863,0.00475824,0.0011511,0
16.456,1500,0.00025137,0.00175824,-0.0018489,0
16.467,1500,0.00125137,0.00275824,0.0091511,0
16.476,1500,-0.00574863,-0.00124176,0.0041511,0
16.487,1500,0.00025137,0.00775824,-0.0038489,0
16.496,1500,0.00225137,0.00175824,0.0021511,0
16.507,1500,0.00625137,0.00075824,-0.0018489,0
16.517,1500,0.00225137,0.00475824,-0.0018489,0
16.526,1500,0.00825137,0.00575824,-0.0048489,0
16.537,1500,0.00325137,-0.00324176,-0.0018489,0
16.547,1500,0.00125137,0.00375824,-0.0058489,0
16.557,1500,0.00225137,0.00575824,0.0011511,0
16.567,1500,-0.00074863,0.00475824,-0.0068489,0
16.577,1500,-0.00174863,-0.00124176,0.0051511,0
16.587,1500,0.00025137,0.00275824,0.0011511,0
16.597,1500,-0.00174863,0.00975824,-0.0048489,0
16.607,1500,0.00125137,0.00575824,0.0021511,0
16.617,1500,0.00125137,0.00075824,-0.0038489,0
16.627,1500,0.00225137,0.00275824,-0.0028489,0
16.638,1500,0.00725137,0.00575824,-0.0028489,0
16.647,1500,0.00125137,0.00075824,-0.0038489,0
16.657,1500,0.00425137,0.00575824,0.0001511,0
16.667,1500,0.00625137,0.00375824,-0.0008489,0
16.677,1500,-0.00074863,0.00775824,-0.0048489,0
16.687,1500,-0.00074863,0.00275824,-0.0018489,0
16.697,1500,-0.00074863,0.00175824,0.0051511,0
16.707,1500,-0.00374863,-0.00124176,0.0061511,0
16.717,1500,-0.00574863,0.00375824,-0.0028489,0
16.727,1500,0.00825137,0.00575824,-0.0038489,0
16.738,1500,0.00225137,-0.00224176,0.0041511,0
16.748,1500,0.00225137,0.00575824,-0.0048489,0
16.757,1500,0.00325137,0.00775824,-0.0048489,0
16.767,1500,0.01025137,-0.00224176,0.0001511,0
16.777,1500,0.00225137,-0.00024176,0.0001511,0
16.787,1500,-0.00474863,0.00675824,-0.0068489,0
16.797,1500,0.00325137,0.00575824,-0.0028489,0
16.807,1500,0.00025137,-0.00024176,-0.0008489,0
16.817,1500,-0.00474863,0.00175824,0.0001511,0
16.827,1500,0.00025137,0.00675824,-0.0018489,0
16.837,1500,0.00025137,0.00475824,-0.0018489,0
16.847,1500,0.00425137,0.00375824,0.0021511,0
16.857,1500,0.00125137,0.00475824,-0.0048489,0
16.867,1500,0.00125137,0.00675824,-0.0038489,0
16.877,1500,0.00225137,0.00475824,-0.0068489,0
16.886,1500,0.00325137,0.00075824,0.0041511,0
16.897,1500,0.00625137,0.00475824,-0.0008489,0
16.906,1500,0.00225137,0.00575824,-0.0018489,0
16.917,1500,-0.00574863,0.00375824,0.0001511,0
16.927,1500,0.00025137,0.00175824,-0.0008489,0
16.936,1500,-0.00274863,0.00075824,0.0021511,0
16.947,1500,-0.00874863,0.00575824,0.0001511,0
16.957,1500,-0.00274863,0.00675824,-0.0078489,0
16.967,1500,0.00425137,0.00375824,0.0001511,0
16.977,1500,0.00725137,-0.00024176,-0.0018489,0
16.987,1500,0.00825137,-0.00124176,-0.0098489,0
16.997,1500,0.00225137,0.00775824,-0.0018489,0
17.007,1500,0.00525137,-0.00124176,0.0021511,0
17.017,1500,0.00325137,-0.00024176,-0.0038489,0
17.026,1500,-0.00274863,0.00775824,-0.0028489,0
17.037,1500,0.00325137,0.00175824,0.0011511,0
17.047,1500,-0.00274863,0.00175824,0.0041511,0
17.057,1500,0.00225137,0.00675824,-0.0028489,0
17.067,1500,-0.00074863,0.00475824,-0.0038489,0
17.077,1500,0.00425137,-0.00224176,-0.0038489,0
17.087,1500,0.00225137,0.00575824,0.0011511,0
17.096,1500,0.00125137,0.00475824,-0.0008489,0
17.107,1500,0.00525137,0.00475824,-0.0018489,0
17.116,1500,0.00425137,0.00275824,0.0031511,0
17.127,1500,0.00125137,0.00175824,-0.0008489,0
17.137,1500,0.00025137,0.00675824,-0.0018489,0
17.147,1500,0.00325137,-0.00224176,-0.0018489,0
17.157,1500,0.00025137,0.00375824,-0.0018489,0
17.167,1500,-0.00074863,0.00175824,-0.0028489,0
17.177,1500,0.00125137,0.00175824,0.0001511,0
17.187,1500,0.00125137,0.00275824,-0.0018489,0
17.197,1500,0.00425137,0.00275824,0.0011511,0
17.207,1500,0.00325137,0.00275824,-0.0078489,0
17.218,1500,0.00025137,0.00275824,-0.0078489,0
17.228,1500,0.00625137,0.00175824,-0.0038489,0
17.238,1500,0.00125137,0.00075824,0.0031511,0
17.248,1500,-0.00074863,0.00375824,-0.0008489,0
17.257,1500,0.00125137,0.00275824,-0.0018489,0
