Time,Speed,accX,accY,accZ,velocity_magnitude
0.073,1500,0.01525137,0.01175824,-0.0078489,0
0.09,1500,0.02925137,0.00775824,-0.0028489,0
0.1,1500,0.02225137,0.00375824,0.0011511,0
0.11,1500,0.03125137,0.00275824,0.0041511,0
0.12,1500,0.02425137,0.00875824,-0.0028489,0
0.13,1500,0.03525137,0.00875824,0.0041511,0
0.141,1500,0.01525137,0.00375824,-0.0008489,0
0.151,1500,0.01725137,0.00575824,-0.0008489,0
0.161,1500,0.02125137,0.00575824,-0.0058489,0
0.171,1500,0.01325137,0.00775824,-0.0008489,0
0.181,1500,0.01725137,0.00175824,-0.0048489,0
0.191,1500,0.01425137,0.00875824,-0.0058489,0
0.201,1500,0.02725137,0.00575824,-0.0008489,0
0.211,1500,0.03025137,0.00575824,-0.0038489,0
0.22,1500,0.01725137,0.00475824,0.0021511,0
0.23,1500,0.03225137,0.00975824,0.0051511,0
0.24,1500,0.02325137,0.00975824,0.0001511,0
0.25,1500,0.01225137,-0.00124176,0.0031511,0
0.26,1500,0.01925137,0.00175824,0.0031511,0
0.27,1500,0.01225137,0.00475824,-0.0098489,0
0.281,1500,0.01325137,0.00675824,0.0031511,0
0.291,1500,0.02425137,0.00375824,0.0011511,0
0.301,1500,0.02425137,0.00475824,-0.0058489,0
0.311,1500,0.02125137,0.00675824,-0.0028489,0
0.32,1500,0.01725137,0.00575824,-0.0018489,0
0.33,1500,0.03025137,0.00575824,-0.0048489,0
0.34,1500,0.02825137,0.00675824,0.0061511,0
0.35,1500,0.02725137,0.00575824,-0.0018489,0
0.361,1500,0.02525137,0.00775824,-0.0018489,0
0.37,1500,0.02725137,0.00075824,0.0091511,0
0.38,1500,0.02125137,-0.00224176,0.0001511,0
0.39,1500,0.01825137,0.00975824,0.0001511,0
0.4,1500,0.01925137,0.00275824,-0.0148489,0
0.41,1500,0.01425137,0.00475824,-0.0018489,0
0.42,1500,0.01025137,0.00175824,-0.0038489,0
0.431,1500,0.02625137,0.00975824,-0.0058489,0
0.441,1500,0.02525137,0.00775824,-0.0018489,0
0.451,1500,0.02825137,0.00575824,0.0001511,0
0.461,1500,0.02225137,0.00975824,0.0061511,0
0.471,1500,0.03625137,0.00975824,0.0071511,0
0.481,1500,0.01425137,0.00675824,-0.0058489,0
0.491,1500,0.02325137,0.00375824,0.0011511,0
0.501,1500,0.01825137,0.00475824,0.0011511,0
0.511,1500,0.01025137,0.00675824,-0.0048489,0
0.52,1500,0.02125137,0.00675824,-0.0008489,0
0.53,1500,0.01725137,0.00575824,0.0031511,0
0.541,1500,0.02325137,0.00475824,-0.0028489,0
0.55,1500,0.01625137,0.00675824,-0.0028489,0
0.56,1500,0.01025137,0.00575824,-0.0118489,0
0.57,1500,0.03025137,0.00275824,-0.0028489,0
0.58,1500,0.01625137,0.00775824,-0.0098489,0
0.591,1500,0.03025137,0.01075824,0.0031511,0
0.6,1500,0.02225137,0.00975824,0.0001511,0
0.61,1500,0.03325137,0.00475824,0.0001511,0
0.62,1500,0.02225137,0.00375824,-0.0038489,0
0.63,1500,0.01425137,0.00775824,0.0001511,0
0.641,1500,0.02525137,0.00375824,0.0001511,0
0.651,1500,0.01325137,0.00375824,-0.0048489,0
0.661,1500,0.02425137,0.00775824,0.0001511,0
0.671,1500,0.02025137,0.00675824,-0.0038489,0
0.681,1500,0.01925137,0.00275824,-0.0078489,0
0.691,1500,0.02825137,0.00575824,-0.0038489,0
0.701,1500,0.02725137,0.00575824,0.0031511,0
0.711,1500,0.02825137,0.00875824,0.0041511,0
0.72,1500,0.01925137,0.00375824,-0.0008489,0
0.73,1500,0.03225137,0.00275824,0.0051511,0
0.741,1500,0.02025137,0.00675824,0.0041511,0
0.75,1500,0.01425137,0.00475824,-0.0018489,0
0.76,1500,0.02225137,0.00375824,-0.0028489,0
0.77,1500,0.01425137,0.00375824,0.0001511,0
0.78,1500,0.01425137,0.00675824,-0.0048489,0
0.791,1500,0.02625137,0.00675824,-0.0048489,0
0.8,1500,0.02425137,0.00575824,-0.0038489,0
0.81,1500,0.02525137,0.00575824,-0.0048489,0
0.82,1500,0.02525137,0.00775824,-0.0038489,0
0.83,1500,0.03125137,0.00275824,0.0031511,0
0.84,1500,0.02925137,0.00675824,0.0091511,0
0.85,1500,0.02625137,0.00375824,0.0041511,0
0.86,1500,0.01625137,0.00475824,-0.0038489,0
0.87,1500,0.01725137,0.00275824,-0.0068489,0
0.88,1500,0.01625137,0.00075824,0.0041511,0
0.89,1500,0.01925137,0.01175824,0.0031511,0
0.9,1500,0.01925137,0.00675824,-0.0058489,0
0.91,1500,0.02625137,-0.00124176,0.0011511,0
0.92,1500,0.02225137,0.00475824,0.0041511,0
0.931,1500,0.03025137,0.00675824,0.0021511,0
0.941,1500,0.02025137,0.00875824,-0.0018489,0
0.95,1500,0.03025137,0.00275824,-0.0028489,0
0.96,1500,0.01725137,0.00575824,0.0031511,0
0.971,1500,0.02525137,0.00775824,0.0011511,0
0.981,1500,0.01825137,0.00175824,0.0031511,0
0.991,1500,0.02225137,0.00575824,0.0041511,0
1.001,1500,0.01525137,0.00675824,0.0011511,0
1.01,1500,0.01825137,0.00775824,-0.0028489,0
1.02,1500,0.02225137,0.00775824,0.0011511,0
1.03,1500,0.01925137,0.00475824,-0.0058489,0
1.04,1500,0.03325137,0.00775824,-0.0008489,0
1.05,1500,0.02525137,0.00475824,0.0031511,0
1.061,1500,0.02725137,-0.00124176,0.0031511,0
1.071,1500,0.02525137,0.00175824,0.0051511,0
1.08,1500,0.02225137,0.00875824,0.0001511,0
1.091,1500,0.02325137,0.00275824,0.0001511,0
1.101,1500,0.02025137,0.00275824,-0.0028489,0
1.111,1500,0.01025137,0.00375824,-0.0018489,0
1.121,1500,0.01825137,0.00375824,-0.0068489,0.024895275334326
1.131,1500,0.02025137,0.00575824,-0.0048489,0.024895275334326
1.141,1500,0.02625137,0.00575824,-0.0028489,0.024895275334326
1.151,1500,0.02025137,0.00575824,0.0011511,0.024895275334326
1.161,1500,0.02725137,0.00675824,0.0071511,0.024895275334326
1.171,1500,0.03125137,0.00675824,0.0011511,0.024895275334326
1.181,1500,0.02725137,0.00675824,0.0031511,0.024895275334326
1.191,1500,0.02725137,0.00575824,-0.0018489,0.024895275334326
1.201,1500,0.02025137,0.00675824,-0.0008489,0.024895275334326
1.211,1500,0.02225137,0.00675824,0.0021511,0.024895275334326
1.221,1500,0.02125137,0.00375824,-0.0028489,0.024895275334326
1.231,1500,0.01925137,0.00875824,-0.0018489,0.024895275334326
1.241,1500,0.01625137,0.00475824,-0.0028489,0.024895275334326
1.251,1500,0.01825137,0.00575824,0.0001511,0.024895275334326
1.261,1500,0.02225137,0.00875824,0.0021511,0.024895275334326
1.271,1500,0.02225137,0.00875824,-0.0038489,0.024895275334326
1.281,1500,0.02425137,0.00975824,0.0011511,0.024895275334326
1.291,1500,0.02625137,0.02275824,0.0001511,0.024895275334326
1.301,1500,0.06125137,0.05175824,-0.0088489,0.024895275334326
1.311,1500,0.05625137,0.05975824,-0.0048489,0.024895275334326
1.321,1500,0.06525137,0.06575824,-0.0058489,0.024895275334326
1.33,1500,0.08225137,0.07475824,-0.0058489,0.024895275334326
1.341,1500,0.05925137,0.07875824,-0.0108489,0.024895275334326
1.35,1500,0.05325137,0.09475824,-0.0108489,0.024895275334326
1.361,1500,0.07525137,0.11075824,-0.0088489,0.024895275334326
1.37,1500,0.11225137,0.11675824,-0.0138489,0.024895275334326
1.38,1500,0.10825137,0.11875824,-0.0018489,0.024895275334326
1.39,1500,0.09125137,0.14275824,-0.0178489,0.024895275334326
1.4,1500,0.11825137,0.12375824,-0.0108489,0.024895275334326
1.411,1500,0.12425137,0.12275824,-0.0098489,0.024895275334326
1.421,1500,0.12325137,0.10575824,-0.0188489,0.024895275334326
1.431,1500,0.11825137,0.10475824,0.0371511,0.024895275334326
1.441,1500,0.08025137,0.09175824,-0.0008489,0.024895275334326
1.451,1500,0.09125137,0.06875824,0.0611511,0.024895275334326
1.461,1500,0.05325137,0.08975824,-0.0078489,0.024895275334326
1.471,1500,0.03825137,0.10875824,-0.0258489,0.024895275334326
1.48,1500,-0.02274863,0.05675824,-0.0248489,0.024895275334326
1.49,1500,0.07425137,-0.04124176,0.0321511,0.024895275334326
1.501,1500,0.04625137,0.00575824,0.0081511,0.024895275334326
1.511,1500,-0.04074863,0.07575824,-0.0368489,0.024895275334326
1.521,1500,0.00625137,0.08275824,-0.0968489,0.024895275334326
1.531,1500,0.03925137,-0.01224176,0.0091511,0.024895275334326
1.541,1500,-0.02274863,-0.04524176,0.0391511,0.024895275334326
1.551,1500,0.02025137,0.01975824,0.0551511,0.024895275334326
1.561,1500,0.04825137,0.06775824,-0.0018489,0.024895275334326
1.571,1500,-0.01374863,0.02975824,-0.0398489,0.024895275334326
1.58,1500,0.01525137,-0.02624176,-0.0228489,0.024895275334326
1.59,1500,0.02525137,0.01875824,0.0061511,0.024895275334326
1.601,1500,-0.03274863,0.00175824,0.0261511,0.024895275334326
1.611,1500,-0.08174863,-0.01324176,0.0131511,0.024895275334326
1.621,1500,0.00925137,0.03975824,0.0041511,0.024895275334326
1.63,1500,-0.07074863,0.00075824,0.0051511,0.024895275334326
1.641,1500,-0.02974863,-0.03824176,0.0251511,130.19598853284
1.651,1500,-0.00774863,0.03675824,-0.0278489,130.19598853284
1.66,1500,-0.00474863,0.04375824,-0.0248489,130.19598853284
1.671,1500,0.06425137,0.03575824,0.0241511,130.19598853284
1.681,1500,0.04525137,-0.02824176,0.0171511,130.19598853284
1.691,1500,-0.02074863,0.00575824,0.0301511,130.19598853284
1.701,1500,0.00525137,0.10575824,-0.0768489,130.19598853284
1.711,1500,0.02725137,0.03975824,0.0081511,130.19598853284
1.721,1500,0.10825137,-0.02724176,0.0251511,130.19598853284
1.731,1500,0.07925137,0.04075824,0.0091511,130.19598853284
1.741,1500,-0.00674863,0.12975824,0.0041511,130.19598853284
1.751,1500,-0.01574863,0.13675824,-0.0408489,130.19598853284
1.761,1500,0.06125137,0.03375824,0.0241511,130.19598853284
1.771,1500,0.02525137,0.02075824,-0.0488489,130.19598853284
1.781,1500,0.05925137,0.14675824,0.0011511,130.19598853284
1.791,1500,0.00725137,0.12975824,-0.0448489,130.19598853284
1.8,1500,0.11725137,0.01475824,0.0071511,130.19598853284
1.811,1500,0.13825137,0.06575824,-0.0218489,130.19598853284
1.821,1500,-0.02274863,0.09375824,-0.0008489,130.19598853284
1.831,1500,0.00925137,0.05475824,0.0101511,130.19598853284
1.841,1500,0.02025137,-0.05824176,0.0571511,130.19598853284
1.851,1500,-0.02974863,-0.04724176,-0.0608489,130.19598853284
1.861,1500,-0.08674863,-0.05624176,-0.1038489,130.19598853284
1.871,1500,-0.08274863,-0.09624176,-0.0378489,130.19598853284
1.881,1500,-0.04174863,-0.18624176,0.0351511,130.19598853284
1.891,1500,-0.18274863,-0.22224176,-0.0098489,130.19598853284
1.901,1500,-0.08274863,-0.06024176,0.0091511,130.19598853284
1.911,1500,-0.06974863,-0.05524176,0.1221511,130.19598853284
1.921,1500,-0.17574863,-0.16024176,-0.0578489,130.19598853284
1.931,1500,0.05225137,-0.15424176,-0.0838489,130.19598853284
1.941,1500,0.11625137,-0.03024176,0.0841511,130.19598853284
1.951,1500,0.13925137,0.00675824,0.1071511,130.19598853284
1.961,1500,0.06325137,-0.02024176,0.0721511,130.19598853284
1.971,1500,0.09125137,0.06175824,0.1511511,130.19598853284
1.981,1500,-0.23974863,-0.02824176,0.0221511,130.19598853284
1.992,1500,-0.16674863,-0.07724176,-0.0018489,130.19598853284
2.001,1500,-0.00774863,-0.03824176,0.0151511,130.19598853284
2.011,1500,-0.02274863,-0.04024176,-0.0638489,130.19598853284
2.021,1500,0.00225137,0.03875824,0.0401511,130.19598853284
2.031,1500,0.03125137,0.02875824,0.0611511,130.19598853284
2.041,1500,0.01025137,0.01075824,0.0001511,130.19598853284
2.051,1500,0.06725137,0.07275824,0.1561511,130.19598853284
2.061,1500,0.09325137,0.05175824,0.1581511,130.19598853284
2.071,1500,0.02425137,-0.00824176,0.1191511,130.19598853284
2.081,1500,-0.00874863,0.01475824,0.0221511,130.19598853284
2.091,1500,0.05625137,0.02775824,0.0671511,130.19598853284
2.101,1500,-0.09974863,-0.03524176,0.0871511,130.19598853284
2.111,1500,-0.14474863,-0.01924176,0.0131511,130.19598853284
2.121,1500,0.00825137,0.05275824,0.0281511,130.19598853284
2.131,1500,-0.06874863,-0.01124176,-0.0458489,130.19598853284
2.141,1500,-0.06374863,-0.01624176,-0.0888489,130.19598853284
2.151,1500,-0.11974863,-0.02824176,0.0131511,130.19598853284
2.162,1500,-0.09174863,0.01375824,0.0221511,200.654385420466
2.172,1500,-0.03574863,-0.00824176,-0.0438489,200.654385420466
2.182,1500,-0.09874863,-0.06124176,-0.1498489,200.654385420466
2.191,1500,-0.13574863,-0.00524176,-0.0338489,200.654385420466
2.201,1500,0.06725137,0.00175824,-0.0298489,200.654385420466
2.211,1500,0.01325137,-0.00424176,-0.0768489,200.654385420466
2.221,1500,0.11825137,0.06775824,-0.0558489,200.654385420466
2.232,1500,-0.04874863,0.05275824,-0.0798489,200.654385420466
2.241,1500,0.03925137,0.05175824,0.0021511,200.654385420466
2.251,1500,0.06025137,0.06575824,0.0451511,200.654385420466
2.261,1500,0.09125137,0.05475824,0.0771511,200.654385420466
2.271,1500,0.21425137,0.08475824,0.1191511,200.654385420466
2.281,1500,0.05625137,0.05275824,0.0161511,200.654385420466
2.291,1500,0.07225137,0.02975824,-0.0988489,200.654385420466
2.301,1500,-0.11474863,-0.02624176,-0.2348489,200.654385420466
2.311,1500,-0.04774863,0.08575824,0.1311511,200.654385420466
2.321,1500,0.02925137,0.10775824,-0.1048489,200.654385420466
2.331,1500,-0.10274863,0.04475824,-0.0978489,200.654385420466
2.34,1500,-0.05574863,0.08475824,0.0151511,200.654385420466
2.351,1500,0.08225137,0.02475824,-0.0928489,200.654385420466
2.361,1500,0.15725137,0.18575824,0.1911511,200.654385420466
2.371,1500,-0.11174863,-0.02224176,-0.1758489,200.654385420466
2.381,1500,0.01525137,0.03675824,-0.0828489,200.654385420466
2.391,1500,0.00325137,0.02775824,0.0531511,200.654385420466
2.401,1500,0.06325137,0.01375824,0.1401511,200.654385420466
2.411,1500,-0.14174863,-0.08024176,-0.0218489,200.654385420466
2.421,1500,0.14525137,-0.05924176,0.0281511,200.654385420466
2.431,1500,-0.07774863,-0.12024176,0.0041511,200.654385420466
2.441,1500,-0.01474863,-0.09024176,-0.0068489,200.654385420466
2.45,1500,-0.14174863,-0.15424176,-0.0608489,200.654385420466
2.461,1500,0.06025137,-0.07124176,0.0581511,200.654385420466
2.471,1500,-0.06374863,-0.12324176,0.0421511,200.654385420466
2.481,1500,-0.07974863,-0.12024176,0.0521511,200.654385420466
2.491,1500,-0.02474863,-0.07524176,0.0241511,200.654385420466
2.501,1500,-0.07874863,-0.05124176,0.0051511,200.654385420466
2.511,1500,-0.02074863,-0.03224176,0.0181511,200.654385420466
2.521,1500,-0.00274863,-0.04124176,0.0111511,200.654385420466
2.531,1500,-0.02074863,-0.02124176,0.0061511,200.654385420466
2.541,1500,-0.00874863,-0.00224176,0.0041511,200.654385420466
2.551,1500,0.03525137,-0.01124176,-0.0228489,200.654385420466
2.561,1500,0.05125137,0.00075824,0.0111511,200.654385420466
2.571,1500,0.04725137,0.01675824,-0.0428489,200.654385420466
2.581,1500,-0.00874863,0.01075824,-0.0268489,200.654385420466
2.591,1500,-0.02474863,0.01575824,0.0191511,200.654385420466
2.601,1500,-0.01574863,0.00675824,-0.0278489,200.654385420466
2.611,1500,0.01425137,0.01275824,0.0441511,200.654385420466
2.621,1500,0.01425137,-0.02424176,0.0051511,200.654385420466
2.631,1500,0.04525137,0.00975824,-0.0128489,200.654385420466
2.642,1500,-0.07474863,-0.00224176,-0.0218489,200.654385420466
2.651,1500,0.04425137,-0.00024176,-0.0188489,200.654385420466
2.661,1500,0.02325137,0.02175824,0.0141511,200.654385420466
2.671,1500,0.00425137,-0.02024176,0.0021511,184.073566741729
2.681,1500,-0.04474863,0.00575824,0.0111511,184.073566741729
2.691,1500,0.00025137,0.03075824,0.0081511,184.073566741729
2.701,1500,-0.03274863,0.01975824,-0.0118489,184.073566741729
2.711,1500,-0.01374863,0.01675824,0.0001511,184.073566741729
2.721,1500,0.09125137,0.01375824,-0.0308489,184.073566741729
2.731,1500,0.00425137,0.01375824,-0.0088489,184.073566741729
2.741,1500,-0.01274863,0.00175824,-0.0008489,184.073566741729
2.752,1500,-0.00474863,0.01575824,0.0021511,184.073566741729
2.761,1500,-0.04474863,-0.00424176,0.0131511,184.073566741729
2.771,1500,0.00625137,0.01875824,0.0291511,184.073566741729
2.782,1500,0.00825137,0.01575824,-0.0038489,184.073566741729
2.791,1500,0.01125137,-0.02624176,-0.0018489,184.073566741729
2.801,1500,-0.00574863,0.02375824,-0.0018489,184.073566741729
2.811,1500,-0.04674863,0.02875824,-0.0028489,184.073566741729
2.821,1500,-0.02974863,0.00275824,0.0151511,184.073566741729
2.831,1500,0.04925137,0.02475824,-0.0108489,184.073566741729
2.841,1500,-0.01574863,0.03775824,0.0541511,184.073566741729
2.851,1500,-0.02574863,0.06575824,0.0121511,184.073566741729
2.861,1500,0.02325137,0.07575824,0.0021511,184.073566741729
2.871,1500,0.03825137,0.04475824,0.0061511,184.073566741729
2.881,1500,0.00325137,0.06475824,-0.0168489,184.073566741729
2.892,1500,0.01525137,0.05275824,-0.0078489,184.073566741729
2.901,1500,0.03025137,0.04175824,-0.0088489,184.073566741729
2.911,1500,0.05825137,0.05775824,-0.0028489,184.073566741729
2.921,1500,0.06825137,0.05575824,-0.0008489,184.073566741729
2.931,1500,-0.02074863,0.06075824,0.0091511,184.073566741729
2.941,1500,0.01725137,0.07875824,-0.0058489,184.073566741729
2.951,1500,0.00225137,0.04775824,-0.0028489,184.073566741729
2.961,1500,0.09225137,0.08175824,-0.0098489,184.073566741729
2.972,1500,0.05725137,0.05575824,-0.0168489,184.073566741729
2.981,1500,-0.04974863,0.06375824,0.0041511,184.073566741729
2.991,1500,-0.05774863,0.05575824,-0.0218489,184.073566741729
3.002,1500,-0.06174863,0.00175824,-0.0188489,184.073566741729
3.011,1500,0.05725137,-0.03824176,0.0041511,184.073566741729
3.022,1500,-0.13474863,-0.08324176,-0.0038489,184.073566741729
3.031,1500,-0.07674863,-0.10124176,-0.0078489,184.073566741729
3.041,1500,-0.02874863,-0.12224176,-0.0008489,184.073566741729
3.052,1500,-0.04774863,-0.13124176,0.0221511,184.073566741729
3.061,1500,-0.00674863,-0.09224176,0.0001511,184.073566741729
3.071,1500,-0.04674863,-0.11624176,0.0191511,184.073566741729
3.082,1500,0.00825137,-0.11424176,0.0081511,184.073566741729
3.091,1500,-0.01274863,-0.09524176,0.0171511,184.073566741729
3.101,1500,-0.08174863,-0.09624176,-0.0358489,184.073566741729
3.112,1500,-0.05374863,-0.05624176,0.0071511,184.073566741729
3.121,1500,0.03625137,-0.03024176,0.0241511,184.073566741729
3.132,1500,0.04525137,-0.00024176,0.0041511,184.073566741729
3.141,1500,0.01625137,0.04875824,0.0781511,184.073566741729
3.151,1500,-0.07174863,-0.03924176,-0.0298489,184.073566741729
3.162,1500,0.09425137,0.00275824,0.0091511,184.073566741729
3.171,1500,-0.01774863,-0.04224176,0.0081511,184.073566741729
3.181,1500,-0.08274863,0.00275824,0.0151511,184.073566741729
3.192,1500,-0.06574863,0.02175824,0.0041511,184.073566741729
3.201,1500,-0.08174863,-0.00624176,0.0041511,166.363895640281
3.211,1500,0.04925137,0.02275824,0.0001511,166.363895640281
3.222,1500,-0.03974863,0.01275824,0.0171511,166.363895640281
3.231,1500,-0.03874863,-0.01524176,0.0091511,166.363895640281
3.242,1500,-0.09974863,0.02475824,-0.0058489,166.363895640281
3.251,1500,0.01625137,0.02775824,-0.0278489,166.363895640281
3.261,1500,-0.03574863,-0.01024176,-0.0088489,166.363895640281
3.272,1500,0.00125137,0.02975824,0.0011511,166.363895640281
3.281,1500,-0.05474863,0.02775824,0.0141511,166.363895640281
3.291,1500,-0.15174863,-0.06124176,-0.0298489,166.363895640281
3.302,1500,-0.00674863,0.01875824,0.0351511,166.363895640281
3.311,1500,-0.02574863,0.01575824,-0.0188489,166.363895640281
3.321,1500,-0.02274863,-0.00124176,-0.0058489,166.363895640281
3.332,1500,-0.02974863,-0.02124176,-0.0678489,166.363895640281
3.341,1500,0.04425137,0.02175824,-0.0078489,166.363895640281
3.352,1500,-0.04374863,-0.00524176,0.0031511,166.363895640281
3.361,1500,-0.04974863,0.01375824,0.0031511,166.363895640281
3.371,1500,0.04325137,0.00875824,-0.0058489,166.363895640281
3.382,1500,0.06025137,0.01375824,0.0011511,166.363895640281
3.391,1500,0.02825137,0.01075824,0.0121511,166.363895640281
3.401,1500,-0.00674863,0.01275824,0.0041511,166.363895640281
3.412,1500,-0.07374863,0.00475824,-0.0208489,166.363895640281
3.421,1500,-0.00474863,0.01575824,-0.0208489,166.363895640281
3.431,1500,-0.02674863,0.01875824,0.0141511,166.363895640281
3.442,1500,0.14425137,0.08875824,0.1491511,166.363895640281
3.451,1500,-0.07974863,0.02775824,-0.0248489,166.363895640281
3.462,1500,-0.02074863,0.00975824,-0.0098489,166.363895640281
3.472,1500,-0.00974863,0.02875824,0.0091511,166.363895640281
3.481,1500,-0.02774863,0.02475824,-0.0078489,166.363895640281
3.492,1500,-0.00274863,0.01975824,-0.0308489,166.363895640281
3.502,1500,-0.03274863,0.00775824,-0.0198489,166.363895640281
3.511,1500,-0.03474863,0.00375824,0.0041511,166.363895640281
3.522,1500,-0.01974863,0.01775824,0.0011511,166.363895640281
3.531,1500,-0.04474863,0.01575824,-0.0168489,166.363895640281
3.541,1500,-0.00374863,0.05175824,0.0591511,166.363895640281
3.552,1500,0.09325137,-0.00324176,-0.0118489,166.363895640281
3.561,1500,-0.00774863,0.02175824,-0.0798489,166.363895640281
3.572,1500,0.16725137,0.06775824,-0.0188489,166.363895640281
3.582,1500,0.01825137,0.00075824,0.0091511,166.363895640281
3.591,1500,0.14425137,0.05175824,-0.0078489,166.363895640281
3.602,1500,-0.04374863,-0.03524176,-0.0448489,166.363895640281
3.611,1500,-0.20774863,-0.01324176,-0.0308489,166.363895640281
3.621,1500,0.15125137,0.13175824,0.2051511,166.363895640281
3.632,1500,0.08325137,-0.06924176,0.0051511,166.363895640281
3.641,1500,0.12725137,0.03575824,0.0821511,166.363895640281
3.652,1500,-0.17774863,-0.08324176,-0.1188489,166.363895640281
3.662,1500,0.05825137,-0.05624176,-0.0238489,166.363895640281
3.671,1500,-0.06174863,-0.14124176,-0.0798489,166.363895640281
3.682,1500,-0.16374863,-0.07124176,0.1231511,166.363895640281
3.692,1500,0.05825137,-0.09824176,0.0391511,166.363895640281
3.701,1500,-0.04074863,-0.14424176,-0.0208489,166.363895640281
3.712,1500,-0.06174863,-0.16124176,0.0021511,166.363895640281
3.722,1500,0.09225137,-0.06724176,0.0411511,123.04678782868
3.731,1500,-0.05174863,-0.13024176,-0.0938489,123.04678782868
3.742,1500,-0.18274863,-0.11124176,0.0641511,123.04678782868
3.751,1500,-0.02574863,-0.03724176,0.1331511,123.04678782868
3.762,1500,-0.08074863,-0.13424176,-0.1438489,123.04678782868
3.772,1500,-0.04874863,-0.03224176,-0.0098489,123.04678782868
3.781,1500,0.01125137,0.04175824,0.1711511,123.04678782868
3.792,1500,-0.03174863,0.00375824,0.1041511,123.04678782868
3.802,1500,0.04125137,0.06275824,0.1351511,123.04678782868
3.812,1500,-0.06574863,-0.03824176,-0.0528489,123.04678782868
3.822,1500,0.00425137,-0.03424176,-0.0778489,123.04678782868
3.832,1500,0.08525137,0.00775824,-0.0448489,123.04678782868
3.842,1500,-0.00474863,-0.05924176,-0.1328489,123.04678782868
3.852,1500,0.04025137,-0.00624176,-0.0078489,123.04678782868
3.862,1500,-0.07674863,-0.08824176,-0.1858489,123.04678782868
3.872,1500,0.02625137,0.00175824,0.0151511,123.04678782868
3.882,1500,-0.04474863,0.02375824,0.0531511,123.04678782868
3.892,1500,0.12525137,-0.00624176,0.0451511,123.04678782868
3.902,1500,0.00625137,0.04375824,0.1041511,123.04678782868
3.912,1500,0.20525137,0.00975824,0.0521511,123.04678782868
3.922,1500,0.03425137,0.02075824,0.0751511,123.04678782868
3.932,1500,0.12425137,0.00475824,0.0131511,123.04678782868
3.942,1500,-0.04174863,0.01775824,0.0971511,123.04678782868
3.952,1500,0.02725137,0.01575824,0.0041511,123.04678782868
3.962,1500,0.02925137,-0.00824176,-0.0118489,123.04678782868
3.972,1500,-0.08374863,-0.01724176,-0.0008489,123.04678782868
3.982,1500,-0.00974863,-0.00324176,0.0061511,123.04678782868
3.993,1500,-0.08074863,-0.02224176,0.0541511,123.04678782868
4.002,1500,-0.10174863,-0.02824176,0.0251511,123.04678782868
4.012,1500,0.04925137,0.06675824,0.0871511,123.04678782868
4.022,1500,0.02025137,-0.02824176,-0.0318489,123.04678782868
4.032,1500,0.13425137,0.03675824,-0.0288489,123.04678782868
4.042,1500,-0.02374863,-0.05824176,-0.1278489,123.04678782868
4.052,1500,0.02825137,-0.08824176,-0.2078489,123.04678782868
4.062,1500,0.03125137,-0.01224176,-0.0408489,123.04678782868
4.072,1500,-0.17574863,-0.11824176,-0.1608489,123.04678782868
4.083,1500,-0.02874863,0.01775824,0.0531511,123.04678782868
4.093,1500,-0.17074863,-0.07724176,-0.1208489,123.04678782868
4.102,1500,0.06725137,0.02975824,0.0601511,123.04678782868
4.112,1500,-0.21774863,-0.09024176,-0.1068489,123.04678782868
4.122,1500,-0.00174863,-0.00524176,0.0451511,123.04678782868
4.132,1500,0.07125137,0.00675824,0.0671511,123.04678782868
4.142,1500,-0.03374863,-0.00624176,0.0091511,123.04678782868
4.152,1500,0.00025137,0.04275824,0.0981511,123.04678782868
4.162,1500,-0.01674863,-0.01624176,0.0011511,123.04678782868
4.172,1500,0.00925137,-0.02724176,-0.0218489,123.04678782868
4.182,1500,-0.02074863,-0.01824176,-0.0218489,123.04678782868
4.192,1500,-0.01274863,0.00375824,0.0391511,123.04678782868
4.202,1500,0.06325137,-0.00624176,-0.0008489,123.04678782868
4.212,1500,-0.00374863,0.00775824,0.0621511,123.04678782868
4.222,1500,0.09325137,-0.01024176,0.0311511,123.04678782868
4.232,1500,0.02225137,0.01575824,0.0531511,123.04678782868
4.242,1500,0.19425137,0.00775824,-0.0008489,40.0513277947161
4.251,1500,0.02125137,0.00875824,0.0371511,40.0513277947161
4.262,1500,0.15525137,0.01075824,-0.0348489,40.0513277947161
4.272,1500,-0.05274863,-0.03724176,-0.0558489,40.0513277947161
4.282,1500,-0.15974863,-0.05424176,-0.0838489,40.0513277947161
4.292,1500,-0.02674863,-0.03624176,-0.0758489,40.0513277947161
4.301,1500,-0.14774863,-0.06224176,-0.0408489,40.0513277947161
4.312,1500,0.06825137,0.03075824,0.0681511,40.0513277947161
4.321,1500,-0.14674863,-0.06524176,-0.0338489,40.0513277947161
4.332,1500,-0.05374863,0.00075824,0.0781511,40.0513277947161
4.342,1500,0.01525137,0.00475824,0.1071511,40.0513277947161
4.352,1500,-0.06674863,-0.02824176,0.0121511,40.0513277947161
4.362,1500,-0.01174863,0.00875824,0.0601511,40.0513277947161
4.371,1500,0.03425137,0.00175824,0.0121511,40.0513277947161
4.382,1500,0.05125137,0.01575824,0.0611511,40.0513277947161
4.392,1500,0.00525137,-0.01124176,-0.0028489,40.0513277947161
4.402,1500,-0.09074863,-0.07524176,-0.0548489,40.0513277947161
4.413,1500,-0.08374863,-0.03024176,-0.0118489,40.0513277947161
4.422,1500,-0.06074863,0.01475824,0.0691511,40.0513277947161
4.432,1500,0.02225137,0.01275824,0.0401511,40.0513277947161
4.442,1500,0.10425137,0.05075824,0.0971511,40.0513277947161
4.452,1500,0.01225137,-0.05524176,-0.0438489,40.0513277947161
4.462,1500,0.04525137,0.00275824,0.0431511,40.0513277947161
4.472,1500,-0.07574863,-0.04224176,-0.0428489,40.0513277947161
4.482,1500,-0.06374863,-0.00024176,0.0371511,40.0513277947161
4.492,1500,-0.03774863,-0.02124176,-0.0098489,40.0513277947161
4.502,1500,-0.02074863,-0.03924176,-0.0798489,40.0513277947161
4.512,1500,0.03125137,-0.00924176,0.0241511,40.0513277947161
4.522,1500,-0.03074863,-0.04524176,-0.0538489,40.0513277947161
4.532,1500,0.14325137,-0.01924176,0.0181511,40.0513277947161
4.542,1500,-0.00274863,0.02875824,0.1371511,40.0513277947161
4.552,1500,0.12525137,-0.00324176,0.0231511,40.0513277947161
4.562,1500,0.00525137,-0.00824176,0.0571511,40.0513277947161
4.573,1500,0.15725137,0.01675824,0.0091511,40.0513277947161
4.583,1500,-0.00574863,-0.04124176,-0.0528489,40.0513277947161
4.592,1500,0.21325137,0.01875824,-0.0338489,40.0513277947161
4.602,1500,0.06825137,0.02675824,0.0061511,40.0513277947161
4.612,1500,-0.05574863,-0.04624176,-0.0668489,40.0513277947161
4.622,1500,-0.02074863,0.00375824,-0.0248489,40.0513277947161
4.632,1500,-0.18974863,-0.07524176,-0.0448489,40.0513277947161
4.642,1500,-0.03874863,-0.01724176,-0.0208489,40.0513277947161
4.652,1500,-0.15274863,-0.05824176,-0.0148489,40.0513277947161
4.662,1500,0.01225137,0.00175824,0.0691511,40.0513277947161
4.673,1500,0.02925137,0.02575824,0.0621511,40.0513277947161
4.683,1500,-0.10774863,-0.04524176,-0.0348489,40.0513277947161
4.693,1500,0.02625137,-0.00324176,-0.0608489,40.0513277947161
4.702,1500,-0.01874863,-0.02224176,-0.0428489,40.0513277947161
4.712,1500,0.10025137,0.02375824,-0.0218489,40.0513277947161
4.722,1500,-0.00274863,-0.02724176,-0.0418489,40.0513277947161
4.732,1500,-0.05374863,-0.09824176,-0.1458489,40.0513277947161
4.742,1500,-0.03474863,0.00375824,0.0391511,40.0513277947161
4.752,1500,-0.21874863,-0.08024176,-0.0548489,40.0513277947161
4.762,1500,-0.01574863,0.00475824,0.0121511,42.9288022063874
4.772,1500,-0.04974863,-0.03124176,0.0221511,42.9288022063874
4.782,1500,-0.05874863,-0.00924176,0.0421511,42.9288022063874
4.792,1500,-0.02174863,0.03275824,0.1491511,42.9288022063874
4.802,1500,-0.00974863,-0.02724176,-0.0008489,42.9288022063874
4.812,1500,-0.09674863,-0.08824176,-0.1378489,42.9288022063874
4.822,1500,0.03625137,0.00475824,0.0381511,42.9288022063874
4.833,1500,-0.12574863,-0.06724176,-0.1168489,42.9288022063874
4.843,1500,0.01225137,-0.02824176,-0.0218489,42.9288022063874
4.853,1500,0.04225137,0.04875824,0.0771511,42.9288022063874
4.862,1500,-0.03874863,-0.05624176,-0.0118489,42.9288022063874
4.872,1500,-0.06174863,0.05075824,0.1311511,42.9288022063874
4.882,1500,0.18325137,-0.00424176,0.0571511,42.9288022063874
4.892,1500,-0.00674863,0.01175824,0.0981511,42.9288022063874
4.902,1500,0.08325137,-0.00324176,-0.0208489,42.9288022063874
4.912,1500,0.03425137,-0.01924176,-0.0138489,42.9288022063874
4.923,1500,0.14825137,0.02175824,-0.0608489,42.9288022063874
4.932,1500,-0.00374863,-0.02524176,-0.0058489,42.9288022063874
4.942,1500,-0.05974863,-0.00224176,0.0711511,42.9288022063874
4.953,1500,-0.00674863,0.00275824,0.0091511,42.9288022063874
4.962,1500,0.05125137,0.00675824,0.0341511,42.9288022063874
4.973,1500,-0.02674863,-0.01124176,-0.0158489,42.9288022063874
4.983,1500,0.03125137,0.00275824,-0.0468489,42.9288022063874
4.993,1500,-0.00974863,-0.02224176,-0.0088489,42.9288022063874
5.003,1500,-0.06774863,-0.06424176,-0.0528489,42.9288022063874
5.012,1500,-0.00574863,-0.02024176,-0.0398489,42.9288022063874
5.022,1500,0.02925137,0.01175824,0.0691511,42.9288022063874
5.032,1500,-0.00974863,-0.01624176,0.0271511,42.9288022063874
5.042,1500,-0.05674863,-0.00824176,-0.0248489,42.9288022063874
5.052,1500,0.16025137,0.02075824,0.0091511,42.9288022063874
5.062,1500,-0.02574863,-0.00924176,-0.0318489,42.9288022063874
5.072,1500,-0.04474863,0.01675824,0.0671511,42.9288022063874
5.082,1500,-0.02174863,0.00775824,0.0701511,42.9288022063874
5.092,1500,-0.00074863,-0.12124176,-0.2398489,42.9288022063874
5.103,1500,0.00225137,0.00075824,-0.0338489,42.9288022063874
5.113,1500,0.05125137,0.01575824,0.0571511,42.9288022063874
5.123,1500,0.11625137,-0.00124176,-0.0478489,42.9288022063874
5.133,1500,0.01725137,-0.02024176,-0.0388489,42.9288022063874
5.143,1500,-0.07774863,-0.03624176,0.0641511,42.9288022063874
5.153,1500,-0.07774863,0.02675824,0.0981511,42.9288022063874
5.163,1500,0.03725137,0.07375824,0.1271511,42.9288022063874
5.173,1500,0.14925137,-0.00724176,0.0001511,42.9288022063874
5.183,1500,0.00725137,0.03075824,0.0431511,42.9288022063874
5.193,1500,0.01425137,-0.01824176,-0.0508489,42.9288022063874
5.203,1500,0.05125137,-0.00024176,0.0421511,42.9288022063874
5.213,1500,0.03625137,0.04375824,0.1201511,42.9288022063874
5.223,1500,0.13925137,0.02475824,0.0651511,42.9288022063874
5.233,1500,-0.13674863,-0.02724176,-0.0568489,42.9288022063874
5.243,1500,-0.02074863,0.01175824,-0.0768489,42.9288022063874
5.253,1500,0.38725137,0.18875824,0.3161511,42.9288022063874
5.263,1500,-0.02574863,-0.07324176,-0.0388489,42.9288022063874
5.273,1500,0.00425137,-0.02024176,-0.0558489,42.9288022063874
5.283,1500,0.06925137,-0.00724176,-0.1018489,42.9288022063874
5.293,1500,0.23225137,-0.06424176,-0.1718489,67.6378877352048
5.303,1500,0.06325137,0.09675824,0.1921511,67.6378877352048
5.313,1500,-0.18474863,-0.01324176,-0.0208489,67.6378877352048
5.322,1500,-0.17274863,-0.06024176,0.0451511,67.6378877352048
5.332,1500,0.11025137,-0.00024176,0.0551511,67.6378877352048
5.342,1500,-0.12774863,-0.03224176,-0.0518489,67.6378877352048
5.352,1500,0.02525137,-0.03324176,-0.0138489,67.6378877352048
5.362,1500,-0.26574863,-0.09424176,0.0651511,67.6378877352048
5.372,1500,0.24525137,0.00575824,0.0911511,67.6378877352048
5.382,1500,-0.19574863,0.01875824,0.0741511,67.6378877352048
5.392,1500,-0.01774863,0.15075824,0.2861511,67.6378877352048
5.402,1500,0.20025137,0.10275824,0.1001511,67.6378877352048
5.412,1500,-0.02374863,0.01275824,-0.1508489,67.6378877352048
5.422,1500,0.09125137,-0.04924176,-0.0378489,67.6378877352048
5.432,1500,-0.01374863,0.01775824,0.0271511,67.6378877352048
5.443,1500,-0.04674863,0.04475824,0.1381511,67.6378877352048
5.452,1500,-0.03474863,0.01375824,-0.0258489,67.6378877352048
5.462,1500,0.15025137,0.02275824,-0.0388489,67.6378877352048
5.472,1500,-0.29174863,-0.18124176,-0.2468489,67.6378877352048
5.483,1500,0.42525137,0.12875824,0.1221511,67.6378877352048
5.493,1500,-0.05574863,0.02975824,0.1021511,67.6378877352048
5.503,1500,-0.01674863,-0.10524176,-0.1928489,67.6378877352048
5.513,1500,0.01525137,0.07975824,0.2621511,67.6378877352048
5.522,1500,-0.18674863,-0.12124176,-0.3068489,67.6378877352048
5.532,1500,0.44225137,0.17475824,0.1071511,67.6378877352048
5.542,1500,-0.47374863,-0.29324176,-0.3448489,67.6378877352048
5.552,1500,0.25125137,0.17875824,0.1151511,67.6378877352048
5.563,1500,0.29425137,-0.10424176,-0.0828489,67.6378877352048
5.573,1500,0.19325137,0.14375824,0.4061511,67.6378877352048
5.583,1500,-0.12074863,-0.15824176,-0.3298489,67.6378877352048
5.593,1500,0.01425137,0.10575824,0.1671511,67.6378877352048
5.603,1500,0.02325137,0.05575824,0.1711511,67.6378877352048
5.612,1500,-0.34074863,-0.15624176,-0.2448489,67.6378877352048
5.622,1500,0.17125137,0.06775824,0.0391511,67.6378877352048
5.632,1500,0.14425137,0.06475824,0.2001511,67.6378877352048
5.642,1500,-0.29874863,-0.07224176,0.0051511,67.6378877352048
5.652,1500,0.25025137,0.07975824,-0.0618489,67.6378877352048
5.663,1500,0.28825137,0.01375824,-0.0388489,67.6378877352048
5.672,1500,0.11025137,0.00975824,-0.0478489,67.6378877352048
5.682,1500,0.11025137,-0.01724176,0.0251511,67.6378877352048
5.692,1500,-0.08474863,-0.04424176,0.0251511,67.6378877352048
5.702,1500,-0.08374863,-0.06924176,-0.0458489,67.6378877352048
5.712,1500,-0.13574863,-0.11124176,0.0011511,67.6378877352048
5.722,1500,-0.11674863,-0.09624176,0.1071511,67.6378877352048
5.733,1500,0.10125137,-0.05724176,0.0611511,67.6378877352048
5.743,1500,-0.00474863,-0.00724176,0.1331511,67.6378877352048
5.753,1500,0.24025137,0.01275824,0.1241511,67.6378877352048
5.763,1500,-0.04174863,-0.07424176,-0.0198489,67.6378877352048
5.772,1500,0.07925137,-0.04324176,-0.0438489,67.6378877352048
5.782,1500,-0.03474863,-0.03724176,-0.0638489,67.6378877352048
5.793,1500,0.03825137,0.03975824,0.1191511,67.6378877352048
5.802,1500,-0.08674863,-0.05124176,-0.0278489,67.6378877352048
5.812,1500,0.13725137,0.07275824,0.2061511,133.220942690276
5.822,1500,-0.03474863,-0.04924176,-0.0278489,133.220942690276
5.832,1500,-0.00374863,-0.05024176,-0.1628489,133.220942690276
5.842,1500,0.01625137,-0.01624176,-0.0068489,133.220942690276
5.852,1500,-0.09774863,-0.06724176,0.0121511,133.220942690276
5.862,1500,-0.07774863,-0.02424176,-0.0038489,133.220942690276
5.873,1500,0.00025137,-0.03624176,-0.0248489,133.220942690276
5.883,1500,-0.00674863,0.00575824,0.0291511,133.220942690276
5.893,1500,-0.01874863,-0.05224176,0.0051511,133.220942690276
5.903,1500,-0.03174863,-0.02624176,0.0731511,133.220942690276
5.913,1500,-0.01974863,-0.05524176,0.0121511,133.220942690276
5.923,1500,-0.00074863,-0.08324176,-0.0148489,133.220942690276
5.933,1500,-0.01874863,-0.02024176,0.0411511,133.220942690276
5.943,1500,-0.02174863,-0.06424176,-0.0078489,133.220942690276
5.952,1500,-0.12274863,-0.06024176,-0.0038489,133.220942690276
5.963,1500,-0.01774863,-0.05924176,0.0011511,133.220942690276
5.972,1500,-0.05174863,-0.06724176,0.0211511,133.220942690276
5.982,1500,-0.07174863,-0.05924176,0.0071511,133.220942690276
5.993,1500,-0.03974863,-0.06224176,0.0001511,133.220942690276
6.002,1500,-0.02574863,-0.05124176,0.0301511,133.220942690276
6.013,1500,-0.05074863,-0.04524176,-0.0208489,133.220942690276
6.022,1500,-0.01074863,-0.04224176,0.0021511,133.220942690276
6.033,1500,-0.02374863,-0.04724176,-0.0008489,133.220942690276
6.043,1500,-0.01974863,-0.04424176,-0.0098489,133.220942690276
6.053,1500,-0.02274863,-0.04924176,-0.0058489,133.220942690276
6.062,1500,-0.02074863,-0.03724176,0.0291511,133.220942690276
6.074,1500,-0.04474863,-0.06724176,-0.0018489,133.220942690276
6.083,1500,-0.01674863,-0.08324176,0.0041511,133.220942690276
6.093,1500,0.00925137,-0.07624176,0.0151511,133.220942690276
6.103,1500,-0.02974863,-0.01024176,-0.0088489,133.220942690276
6.113,1500,-0.02674863,-0.13324176,0.0131511,133.220942690276
6.123,1500,-0.00674863,-0.18524176,-0.0428489,133.220942690276
6.133,1500,-0.05874863,-0.17624176,0.0111511,133.220942690276
6.142,1500,-0.04774863,-0.18424176,0.0581511,133.220942690276
6.152,1500,-0.00374863,-0.08724176,0.0311511,133.220942690276
6.163,1500,0.02525137,-0.04524176,0.0271511,133.220942690276
6.173,1500,-0.10574863,-0.06724176,0.0341511,133.220942690276
6.183,1500,-0.04774863,-0.06024176,-0.0288489,133.220942690276
6.193,1500,0.08325137,-0.04524176,0.0781511,133.220942690276
6.203,1500,0.04025137,-0.02024176,0.1161511,133.220942690276
6.212,1500,0.01625137,-0.03424176,-0.0108489,133.220942690276
6.223,1500,0.02925137,-0.02824176,0.0011511,133.220942690276
6.232,1500,-0.00974863,-0.02824176,-0.0078489,133.220942690276
6.243,1500,-0.01474863,-0.01924176,0.0371511,133.220942690276
6.253,1500,-0.01174863,-0.00124176,0.0241511,133.220942690276
6.262,1500,0.01525137,0.00175824,0.0141511,133.220942690276
6.273,1500,-0.01874863,-0.01324176,-0.0178489,133.220942690276
6.282,1500,-0.05674863,-0.02224176,-0.0208489,133.220942690276
6.292,1500,0.11625137,0.00275824,-0.0368489,133.220942690276
6.303,1500,-0.00174863,-0.00324176,-0.0188489,133.220942690276
6.312,1500,-0.15174863,0.01675824,-0.0158489,133.220942690276
6.323,1500,-0.02874863,-0.01324176,-0.0378489,133.220942690276
6.333,1500,-0.00274863,-0.00624176,0.0461511,39.9032352203555
6.342,1500,-0.08274863,-0.02124176,0.0501511,39.9032352203555
6.353,1500,0.04125137,-0.02124176,0.0091511,39.9032352203555
6.363,1500,-0.01574863,-0.03124176,0.0541511,39.9032352203555
6.372,1500,0.00825137,0.01075824,0.0481511,39.9032352203555
6.383,1500,0.01625137,-0.00924176,-0.0068489,39.9032352203555
6.392,1500,0.07325137,-0.03924176,-0.0638489,39.9032352203555
6.402,1500,-0.04174863,-0.00224176,-0.0038489,39.9032352203555
6.413,1500,-0.02474863,-0.02724176,0.0041511,39.9032352203555
6.422,1500,0.03225137,-0.00724176,-0.0268489,39.9032352203555
6.433,1500,-0.19774863,-0.02024176,-0.0328489,39.9032352203555
6.443,1500,0.00525137,-0.02824176,-0.0378489,39.9032352203555
6.452,1500,0.09925137,-0.01624176,0.0271511,39.9032352203555
6.463,1500,0.07125137,-0.00024176,0.0541511,39.9032352203555
6.473,1500,-0.02774863,-0.03024176,0.0351511,39.9032352203555
6.482,1500,0.11925137,0.00375824,0.0161511,39.9032352203555
6.493,1500,-0.05274863,-0.02824176,0.0301511,39.9032352203555
6.502,1500,-0.05774863,-0.01324176,0.0101511,39.9032352203555
6.513,1500,-0.10674863,-0.01424176,-0.0528489,39.9032352203555
6.523,1500,-0.02774863,-0.02824176,-0.0418489,39.9032352203555
6.532,1500,0.00425137,-0.03824176,0.0151511,39.9032352203555
6.543,1500,0.08325137,-0.01724176,0.0561511,39.9032352203555
6.552,1500,0.09225137,-0.04224176,0.0291511,39.9032352203555
6.563,1500,0.08225137,-0.00824176,-0.0548489,39.9032352203555
6.573,1500,-0.00574863,-0.01824176,-0.0018489,39.9032352203555
6.583,1500,-0.05974863,-0.06924176,-0.0858489,39.9032352203555
6.592,1500,-0.09874863,-0.01524176,0.0161511,39.9032352203555
6.603,1500,0.02725137,0.01275824,-0.0138489,39.9032352203555
6.612,1500,0.06525137,0.00975824,0.0741511,39.9032352203555
6.623,1500,-0.08074863,-0.04024176,0.0231511,39.9032352203555
6.633,1500,-0.04274863,-0.03224176,0.0591511,39.9032352203555
6.643,1500,0.07625137,-0.00924176,0.0661511,39.9032352203555
6.653,1500,0.03725137,-0.04724176,0.0461511,39.9032352203555
6.662,1500,0.19125137,-0.03424176,-0.0088489,39.9032352203555
6.673,1500,-0.28374863,-0.07124176,-0.0428489,39.9032352203555
6.683,1500,-0.05074863,0.00475824,-0.0218489,39.9032352203555
6.693,1500,-0.07874863,0.03275824,0.0541511,39.9032352203555
6.703,1500,-0.02174863,-0.05524176,-0.1628489,39.9032352203555
6.713,1500,-0.08174863,0.04675824,0.0951511,39.9032352203555
6.723,1500,0.23225137,0.07175824,-0.0298489,39.9032352203555
6.733,1500,-0.18274863,0.00275824,-0.0998489,39.9032352203555
6.743,1500,0.14025137,0.10275824,0.0001511,39.9032352203555
6.753,1500,0.06025137,0.11575824,0.0261511,39.9032352203555
6.763,1500,-0.09774863,0.10675824,0.0681511,39.9032352203555
6.773,1500,-0.11074863,0.06675824,0.0231511,39.9032352203555
6.783,1500,0.09325137,0.09275824,0.0311511,39.9032352203555
6.793,1500,0.11025137,0.01775824,-0.0928489,39.9032352203555
6.803,1500,-0.14674863,0.02875824,-0.0148489,39.9032352203555
6.813,1500,-0.08974863,0.00275824,-0.0948489,39.9032352203555
6.823,1500,0.03225137,-0.01924176,-0.1008489,39.9032352203555
6.833,1500,0.02025137,0.01775824,-0.0388489,39.9032352203555
6.843,1500,0.05925137,0.06875824,0.1581511,39.9032352203555
6.853,1500,0.01025137,-0.00424176,0.0191511,104.622898684912
6.863,1500,0.03825137,0.00075824,-0.0148489,104.622898684912
6.873,1500,0.03025137,0.01975824,-0.0008489,104.622898684912
6.883,1500,0.00225137,-0.05624176,-0.1268489,104.622898684912
6.894,1500,-0.03374863,-0.03524176,-0.0178489,104.622898684912
6.904,1500,-0.00474863,-0.00724176,-0.0378489,104.622898684912
6.914,1500,0.02625137,0.00175824,0.0101511,104.622898684912
6.923,1500,0.00625137,0.00375824,0.0001511,104.622898684912
6.933,1500,0.01325137,-0.00424176,-0.0068489,104.622898684912
6.943,1500,-0.00574863,-0.01524176,-0.0028489,104.622898684912
6.953,1500,-0.03374863,-0.00424176,-0.0088489,104.622898684912
6.963,1500,0.03725137,-0.05724176,-0.1208489,104.622898684912
6.973,1500,-0.04274863,0.02475824,0.0131511,104.622898684912
6.983,1500,0.03225137,-0.03624176,-0.0728489,104.622898684912
6.993,1500,-0.01074863,0.00375824,-0.0048489,104.622898684912
7.003,1500,0.04125137,-0.02724176,-0.0578489,104.622898684912
7.013,1500,-0.10674863,-0.03024176,-0.0498489,104.622898684912
7.024,1500,-0.05574863,-0.07524176,-0.1278489,104.622898684912
7.033,1500,-0.12574863,-0.00724176,0.0101511,104.622898684912
7.043,1500,-0.00874863,-0.04724176,-0.0518489,104.622898684912
7.053,1500,-0.01574863,-0.01124176,0.0301511,104.622898684912
7.063,1500,-0.01174863,-0.00224176,0.0201511,104.622898684912
7.073,1500,0.14725137,0.02675824,0.0261511,104.622898684912
7.083,1500,0.02225137,-0.02524176,0.0081511,104.622898684912
7.093,1500,0.08225137,0.00075824,-0.0148489,104.622898684912
7.103,1500,0.02825137,-0.03524176,-0.0438489,104.622898684912
7.113,1500,0.05825137,-0.00824176,-0.0478489,104.622898684912
7.123,1500,0.06625137,-0.01824176,-0.0408489,104.622898684912
7.133,1500,0.00625137,-0.05824176,-0.1128489,104.622898684912
7.144,1500,-0.01874863,-0.01124176,-0.0118489,104.622898684912
7.154,1500,-0.09374863,-0.04424176,-0.0268489,104.622898684912
7.163,1500,-0.02874863,-0.01424176,-0.0008489,104.622898684912
7.173,1500,0.01925137,-0.02524176,0.0171511,104.622898684912
7.183,1500,0.04225137,-0.01324176,0.0181511,104.622898684912
7.193,1500,-0.01774863,-0.01724176,0.0001511,104.622898684912
7.203,1500,-0.01074863,-0.00524176,0.0171511,104.622898684912
7.213,1500,0.02725137,-0.04324176,-0.0738489,104.622898684912
7.223,1500,-0.01374863,-0.01824176,-0.0098489,104.622898684912
7.233,1500,-0.04774863,-0.03124176,-0.0458489,104.622898684912
7.243,1500,0.04925137,-0.00124176,-0.0128489,104.622898684912
7.253,1500,-0.04374863,-0.04824176,-0.0698489,104.622898684912
7.263,1500,0.02825137,-0.01524176,-0.0068489,104.622898684912
7.273,1500,-0.07274863,0.01375824,0.0721511,104.622898684912
7.283,1500,0.01325137,0.00075824,0.0211511,104.622898684912
7.293,1500,0.01125137,-0.01324176,0.0271511,104.622898684912
7.304,1500,-0.03774863,-0.02024176,-0.0078489,104.622898684912
7.313,1500,0.05125137,0.03875824,0.1011511,104.622898684912
7.323,1500,-0.06174863,-0.01624176,-0.0268489,104.622898684912
7.333,1500,-0.00874863,-0.02324176,-0.0128489,104.622898684912
7.343,1500,-0.07874863,-0.03424176,-0.0148489,104.622898684912
7.353,1500,0.00425137,-0.00424176,-0.0158489,104.622898684912
7.363,1500,-0.06274863,0.00475824,0.0181511,104.622898684912
7.373,1500,-0.02374863,-0.00624176,0.0041511,47.7435864823802
7.383,1500,0.10825137,0.02475824,0.0121511,47.7435864823802
7.393,1500,0.01625137,-0.05524176,-0.0408489,47.7435864823802
7.404,1500,0.06525137,-0.00724176,-0.0298489,47.7435864823802
7.414,1500,-0.02174863,-0.02124176,-0.0088489,47.7435864823802
7.424,1500,-0.07674863,-0.06224176,-0.0828489,47.7435864823802
7.434,1500,-0.00174863,-0.00424176,0.0081511,47.7435864823802
7.443,1500,-0.09974863,-0.04824176,-0.0508489,47.7435864823802
7.453,1500,0.12925137,-0.00924176,0.0191511,47.7435864823802
7.463,1500,-0.03074863,-0.02524176,0.0021511,47.7435864823802
7.473,1500,-0.03174863,-0.01524176,0.0061511,47.7435864823802
7.483,1500,-0.04774863,-0.01524176,0.0291511,47.7435864823802
7.493,1500,-0.00974863,-0.00024176,0.0451511,47.7435864823802
7.503,1500,0.10625137,0.01075824,0.0301511,47.7435864823802
7.514,1500,0.04025137,-0.02824176,-0.0208489,47.7435864823802
7.524,1500,0.10825137,0.02375824,0.0711511,47.7435864823802
7.534,1500,0.04325137,-0.03024176,-0.0308489,47.7435864823802
7.543,1500,0.03725137,0.00475824,0.0251511,47.7435864823802
7.553,1500,-0.04674863,-0.04824176,-0.0278489,47.7435864823802
7.563,1500,0.03425137,-0.02824176,-0.0448489,47.7435864823802
7.573,1500,-0.05074863,-0.03424176,-0.0198489,47.7435864823802
7.583,1500,0.05125137,-0.03024176,-0.0718489,47.7435864823802
7.593,1500,0.06225137,-0.01024176,-0.0038489,47.7435864823802
7.604,1500,-0.01274863,0.00375824,0.0451511,47.7435864823802
7.613,1500,-0.06374863,-0.01324176,-0.0068489,47.7435864823802
7.623,1500,0.04125137,-0.00024176,0.0311511,47.7435864823802
7.633,1500,-0.04374863,-0.01624176,-0.0208489,47.7435864823802
7.643,1500,0.11525137,-0.00724176,-0.0528489,47.7435864823802
7.653,1500,-0.04374863,-0.03924176,-0.0548489,47.7435864823802
7.664,1500,0.09125137,-0.02824176,-0.0598489,47.7435864823802
7.674,1500,-0.17274863,-0.04524176,-0.0238489,47.7435864823802
7.684,1500,-0.10574863,-0.02824176,-0.0348489,47.7435864823802
7.694,1500,-0.13174863,-0.03724176,-0.0038489,47.7435864823802
7.703,1500,0.05125137,0.01375824,0.0391511,47.7435864823802
7.713,1500,-0.19474863,-0.04624176,-0.0168489,47.7435864823802
7.723,1500,0.01425137,0.00775824,0.0291511,47.7435864823802
7.733,1500,0.06025137,0.01275824,0.0341511,47.7435864823802
7.743,1500,0.00525137,-0.02424176,-0.0108489,47.7435864823802
7.753,1500,0.08725137,0.01375824,0.0581511,47.7435864823802
7.763,1500,-0.08874863,-0.03924176,-0.0318489,47.7435864823802
7.773,1500,0.07225137,-0.01424176,-0.0238489,47.7435864823802
7.783,1500,-0.01474863,-0.04324176,-0.0538489,47.7435864823802
7.793,1500,0.09525137,-0.01924176,-0.0738489,47.7435864823802
7.803,1500,0.07425137,0.00575824,0.0041511,47.7435864823802
7.813,1500,-0.11574863,-0.01124176,0.0271511,47.7435864823802
7.823,1500,-0.05174863,-0.02424176,0.0111511,47.7435864823802
7.833,1500,-0.00074863,0.02775824,0.0941511,47.7435864823802
7.843,1500,-0.00174863,-0.03524176,-0.0248489,47.7435864823802
7.854,1500,0.00225137,0.02975824,0.1291511,47.7435864823802
7.863,1500,0.04425137,-0.00424176,0.0041511,47.7435864823802
7.873,1500,0.02725137,-0.05024176,-0.0378489,47.7435864823802
7.883,1500,-0.03274863,-0.03124176,0.0011511,47.7435864823802
7.893,1500,-0.02874863,-0.04924176,-0.0648489,44.4746677626131
7.904,1500,0.01025137,-0.02124176,-0.0008489,44.4746677626131
7.913,1500,0.00225137,-0.00124176,0.0411511,44.4746677626131
7.923,1500,0.06625137,-0.01424176,-0.0118489,44.4746677626131
7.933,1500,-0.06474863,0.00475824,0.0621511,44.4746677626131
7.943,1500,-0.05074863,-0.02624176,0.0041511,44.4746677626131
7.954,1500,0.02525137,0.01575824,0.0701511,44.4746677626131
7.964,1500,-0.05874863,-0.00924176,-0.0158489,44.4746677626131
7.974,1500,-0.01074863,-0.02124176,-0.0508489,44.4746677626131
7.984,1500,-0.03174863,-0.00324176,-0.0168489,44.4746677626131
7.994,1500,0.14125137,-0.01124176,0.0021511,44.4746677626131
8.004,1500,-0.07074863,-0.05024176,0.0111511,44.4746677626131
8.013,1500,-0.00574863,-0.02524176,0.0051511,44.4746677626131
8.024,1500,0.07925137,-0.00024176,0.0361511,44.4746677626131
8.033,1500,-0.04374863,-0.02724176,0.0261511,44.4746677626131
8.043,1500,-0.01274863,-0.06224176,-0.0678489,44.4746677626131
8.053,1500,0.02925137,-0.01624176,0.0091511,44.4746677626131
8.063,1500,0.01825137,-0.04924176,-0.0138489,44.4746677626131
8.073,1500,-0.03574863,-0.02324176,0.0231511,44.4746677626131
8.083,1500,-0.06974863,-0.00524176,0.0851511,44.4746677626131
8.093,1500,0.04125137,-0.03024176,0.0131511,44.4746677626131
8.104,1500,-0.00274863,-0.04924176,-0.0608489,44.4746677626131
8.113,1500,-0.02274863,-0.02424176,-0.0208489,44.4746677626131
8.124,1500,0.02225137,-0.01424176,0.0001511,44.4746677626131
8.134,1500,-0.16374863,-0.06624176,-0.0028489,44.4746677626131
8.144,1500,0.07125137,-0.01224176,0.0781511,44.4746677626131
8.154,1500,0.04625137,-0.02524176,-0.0078489,44.4746677626131
8.164,1500,0.00125137,-0.05424176,-0.0268489,44.4746677626131
8.174,1500,-0.12474863,-0.04424176,0.0251511,44.4746677626131
8.184,1500,-0.00174863,0.00575824,0.0471511,44.4746677626131
8.194,1500,-0.02074863,-0.06124176,-0.0678489,44.4746677626131
8.204,1500,0.01525137,-0.02424176,-0.0128489,44.4746677626131
8.214,1500,0.00225137,-0.01324176,0.0421511,44.4746677626131
8.224,1500,-0.12374863,-0.05924176,0.0071511,44.4746677626131
8.234,1500,0.02425137,-0.00824176,0.0401511,44.4746677626131
8.244,1500,-0.02074863,-0.04524176,-0.0438489,44.4746677626131
8.254,1500,0.02925137,-0.02424176,0.0091511,44.4746677626131
8.263,1500,-0.07274863,-0.03024176,0.0121511,44.4746677626131
8.274,1500,-0.09974863,-0.09924176,-0.0278489,44.4746677626131
8.284,1500,-0.00274863,-0.06724176,0.0201511,44.4746677626131
8.294,1500,-0.14174863,-0.07524176,-0.0218489,44.4746677626131
8.304,1500,-0.12074863,-0.02424176,0.0031511,44.4746677626131
8.314,1500,0.04425137,0.00175824,0.0781511,44.4746677626131
8.324,1500,0.02525137,-0.02724176,0.1261511,44.4746677626131
8.334,1500,0.01025137,-0.01424176,0.1341511,44.4746677626131
8.344,1500,0.02325137,0.01575824,0.1151511,44.4746677626131
8.354,1500,-0.05374863,-0.04524176,-0.0168489,44.4746677626131
8.363,1500,0.03825137,-0.09924176,-0.0808489,44.4746677626131
8.373,1500,-0.15474863,-0.07424176,-0.0738489,44.4746677626131
8.383,1500,-0.05374863,-0.02124176,0.0001511,44.4746677626131
8.393,1500,0.01225137,-0.02024176,0.0481511,44.4746677626131
8.403,1500,-0.03374863,-0.02424176,-0.0108489,44.4746677626131
8.414,1500,0.05225137,-0.02424176,0.0211511,86.5083438789353
8.424,1500,-0.00574863,-0.02724176,0.0161511,86.5083438789353
8.434,1500,-0.04374863,-0.06424176,-0.0798489,86.5083438789353
8.444,1500,-0.05174863,-0.06424176,-0.0068489,86.5083438789353
8.454,1500,-0.02274863,-0.03824176,-0.0448489,86.5083438789353
8.464,1500,-0.29974863,-0.08024176,-0.1008489,86.5083438789353
8.474,1500,-0.10774863,-0.02024176,0.0241511,86.5083438789353
8.484,1500,0.18225137,-0.02524176,-0.0038489,86.5083438789353
8.494,1500,-0.00274863,-0.00624176,0.0771511,86.5083438789353
8.504,1500,-0.26574863,-0.05424176,0.0351511,86.5083438789353
8.514,1500,0.13125137,0.05975824,0.1161511,86.5083438789353
8.524,1500,0.15625137,0.02175824,-0.0538489,86.5083438789353
8.534,1500,0.25725137,0.04875824,0.0751511,86.5083438789353
8.544,1500,-0.07674863,-0.06224176,-0.0438489,86.5083438789353
8.554,1500,0.02525137,0.02775824,0.1381511,86.5083438789353
8.563,1500,-0.23374863,-0.11624176,-0.0998489,86.5083438789353
8.573,1500,-0.13374863,-0.00224176,0.0031511,86.5083438789353
8.584,1500,-0.12074863,-0.03624176,-0.0418489,86.5083438789353
8.594,1500,-0.06974863,-0.11324176,-0.2138489,86.5083438789353
8.603,1500,0.12825137,0.01575824,-0.0028489,86.5083438789353
8.614,1500,0.04625137,-0.05924176,-0.0428489,86.5083438789353
8.624,1500,-0.09574863,-0.02624176,0.0231511,86.5083438789353
8.634,1500,-0.08874863,0.02675824,0.0691511,86.5083438789353
8.644,1500,-0.02674863,-0.04624176,0.0381511,86.5083438789353
8.654,1500,0.03025137,-0.01424176,0.0841511,86.5083438789353
8.664,1500,-0.06874863,-0.03324176,-0.1078489,86.5083438789353
8.674,1500,-0.02574863,-0.04124176,-0.1048489,86.5083438789353
8.684,1500,0.28425137,0.02175824,-0.0208489,86.5083438789353
8.693,1500,-0.12474863,-0.00024176,-0.0938489,86.5083438789353
8.703,1500,0.20525137,-0.00624176,-0.0698489,86.5083438789353
8.714,1500,0.24825137,0.05575824,0.0171511,86.5083438789353
8.724,1500,0.07925137,0.02575824,0.0571511,86.5083438789353
8.734,1500,-0.00074863,0.00275824,0.0361511,86.5083438789353
8.743,1500,0.05125137,0.01575824,-0.1058489,86.5083438789353
8.754,1500,-0.09774863,0.02375824,-0.0468489,86.5083438789353
8.764,1500,-0.09674863,-0.00524176,-0.0608489,86.5083438789353
8.774,1500,-0.15174863,-0.02224176,-0.0128489,86.5083438789353
8.784,1500,-0.08474863,-0.06424176,-0.0398489,86.5083438789353
8.794,1500,-0.08774863,0.01375824,0.0031511,86.5083438789353
8.804,1500,0.00525137,-0.01824176,-0.0208489,86.5083438789353
8.814,1500,0.02825137,-0.03724176,0.0061511,86.5083438789353
8.823,1500,0.08125137,-0.01924176,-0.0378489,86.5083438789353
8.834,1500,-0.06474863,-0.01324176,0.0061511,86.5083438789353
8.843,1500,-0.06874863,0.01675824,-0.0458489,86.5083438789353
8.854,1500,-0.04074863,-0.02424176,-0.0418489,86.5083438789353
8.864,1500,0.02325137,-0.06024176,-0.0008489,86.5083438789353
8.873,1500,0.03325137,-0.03924176,-0.0158489,86.5083438789353
8.884,1500,-0.08774863,-0.04424176,0.0071511,86.5083438789353
8.893,1500,0.02125137,-0.08024176,-0.0378489,86.5083438789353
8.904,1500,0.02425137,-0.04124176,0.0141511,86.5083438789353
8.913,1500,-0.03274863,-0.07124176,0.0131511,86.5083438789353
8.924,1500,-0.06074863,-0.05024176,0.0571511,86.5083438789353
8.934,1500,0.00325137,-0.03624176,0.0081511,160.617868397054
8.943,1500,-0.11274863,-0.07424176,0.0141511,160.617868397054
8.954,1500,-0.01674863,-0.02224176,0.0661511,160.617868397054
8.964,1500,-0.14674863,-0.08524176,-0.0078489,160.617868397054
8.974,1500,0.02525137,-0.05424176,-0.0128489,160.617868397054
8.984,1500,-0.09474863,-0.03024176,0.0011511,160.617868397054
8.994,1500,0.03525137,-0.04824176,-0.0558489,160.617868397054
9.004,1500,-0.13374863,-0.11724176,0.0041511,160.617868397054
9.014,1500,0.04225137,-0.09324176,-0.0048489,160.617868397054
9.024,1500,-0.14174863,-0.08524176,-0.0088489,160.617868397054
9.034,1500,-0.07574863,-0.04424176,0.0341511,160.617868397054
9.044,1500,-0.06574863,-0.03124176,0.0101511,160.617868397054
9.054,1500,-0.02074863,-0.00224176,0.0161511,160.617868397054
9.064,1500,0.01825137,-0.00724176,0.0091511,160.617868397054
9.074,1500,0.00925137,0.00275824,0.0081511,160.617868397054
9.084,1500,0.00225137,0.01975824,0.0091511,160.617868397054
9.094,1500,-0.01674863,0.02375824,0.0011511,160.617868397054
9.104,1500,0.02825137,0.06075824,-0.0208489,160.617868397054
9.114,1500,-0.01374863,0.07575824,-0.0118489,160.617868397054
9.124,1500,0.05925137,0.10275824,-0.0128489,160.617868397054
9.134,1500,0.09325137,0.15975824,-0.0048489,160.617868397054
9.144,1500,0.17925137,0.17875824,-0.0188489,160.617868397054
9.153,1500,0.05125137,0.11775824,-0.0368489,160.617868397054
9.164,1500,0.03525137,0.11375824,-0.0048489,160.617868397054
9.174,1500,-0.00074863,0.05775824,-0.0238489,160.617868397054
9.184,1500,0.04625137,0.04475824,-0.0138489,160.617868397054
9.194,1500,0.02425137,0.01775824,0.0091511,160.617868397054
9.204,1500,0.03325137,0.02775824,0.0131511,160.617868397054
9.214,1500,0.02525137,0.02775824,0.0231511,160.617868397054
9.224,1500,-0.04274863,0.00275824,-0.0028489,160.617868397054
9.234,1500,0.05325137,0.02875824,0.0381511,160.617868397054
9.244,1500,-0.00274863,0.00275824,0.0121511,160.617868397054
9.254,1500,0.03025137,-0.01624176,-0.0088489,160.617868397054
9.264,1500,0.01425137,0.01375824,-0.0008489,160.617868397054
9.273,1500,0.01125137,0.02275824,0.0151511,160.617868397054
9.284,1500,-0.03074863,0.03375824,-0.0058489,160.617868397054
9.294,1500,-0.04274863,0.04075824,0.0111511,160.617868397054
9.304,1500,0.00925137,0.00075824,0.0041511,160.617868397054
9.314,1500,-0.04274863,-0.03424176,-0.0678489,160.617868397054
9.324,1500,0.03525137,-0.00124176,0.0151511,160.617868397054
9.334,1500,-0.01574863,0.00375824,-0.0058489,160.617868397054
9.344,1500,-0.09874863,-0.00024176,0.0141511,160.617868397054
9.354,1500,-0.05374863,-0.00924176,0.0231511,160.617868397054
9.364,1500,-0.05774863,-0.00624176,0.0021511,160.617868397054
9.374,1500,0.00325137,0.01575824,0.0081511,160.617868397054
9.384,1500,-0.05474863,-0.02824176,-0.0198489,160.617868397054
9.395,1500,0.00725137,0.00075824,0.0041511,160.617868397054
9.405,1500,0.01625137,0.01275824,0.0081511,160.617868397054
9.415,1500,-0.11474863,-0.04324176,-0.0038489,160.617868397054
9.424,1500,0.05225137,-0.00824176,0.0041511,160.617868397054
9.434,1500,-0.00374863,-0.01424176,-0.0078489,160.617868397054
9.445,1500,0.07825137,-0.00724176,-0.0068489,160.617868397054
9.455,1500,-0.04174863,-0.01524176,-0.0458489,179.739296250211
9.464,1500,-0.05174863,-0.03924176,0.0061511,179.739296250211
9.474,1500,-0.03174863,-0.05324176,0.0491511,179.739296250211
9.485,1500,0.00225137,-0.03524176,0.0391511,179.739296250211
9.494,1500,-0.04074863,-0.07724176,0.0091511,179.739296250211
9.504,1500,-0.08274863,-0.06924176,-0.0188489,179.739296250211
9.514,1500,-0.03974863,-0.07124176,-0.0138489,179.739296250211
9.524,1500,-0.09474863,-0.11424176,-0.0988489,179.739296250211
9.535,1500,0.09725137,-0.04224176,0.0041511,179.739296250211
9.544,1500,0.01325137,-0.01224176,0.1211511,179.739296250211
9.554,1500,0.09425137,0.03875824,0.1841511,179.739296250211
9.564,1500,-0.01374863,-0.10524176,-0.0128489,179.739296250211
9.574,1500,-0.15074863,-0.15724176,-0.3038489,179.739296250211
9.584,1500,0.17625137,-0.02124176,-0.1018489,179.739296250211
9.594,1500,0.04125137,-0.06324176,-0.2038489,179.739296250211
9.604,1500,0.08525137,-0.10524176,-0.0748489,179.739296250211
9.615,1500,-0.04274863,-0.04824176,0.0041511,179.739296250211
9.625,1500,-0.15574863,-0.05024176,-0.1418489,179.739296250211
9.635,1500,0.05925137,0.06275824,0.1481511,179.739296250211
9.644,1500,-0.14874863,0.04775824,-0.0478489,179.739296250211
9.654,1500,-0.01674863,0.01675824,-0.1618489,179.739296250211
9.664,1500,0.19325137,0.10975824,0.0681511,179.739296250211
9.675,1500,-0.02374863,0.05575824,0.0871511,179.739296250211
9.684,1500,0.06225137,0.10175824,-0.0368489,179.739296250211
9.694,1500,0.13625137,0.04975824,-0.0478489,179.739296250211
9.704,1500,-0.01274863,0.12275824,0.0571511,179.739296250211
9.714,1500,0.06625137,0.12575824,-0.0668489,179.739296250211
9.724,1500,-0.05474863,0.09775824,-0.0908489,179.739296250211
9.734,1500,0.15625137,0.12175824,0.0421511,179.739296250211
9.744,1500,-0.22674863,-0.07424176,-0.2428489,179.739296250211
9.754,1500,0.12125137,0.03475824,-0.1438489,179.739296250211
9.765,1500,-0.06174863,-0.00024176,-0.1118489,179.739296250211
9.775,1500,-0.15174863,-0.10324176,-0.2768489,179.739296250211
9.785,1500,-0.36474863,-0.07624176,-0.1358489,179.739296250211
9.794,1500,-0.03774863,0.03375824,-0.0358489,179.739296250211
9.804,1500,-0.21974863,-0.05024176,-0.2558489,179.739296250211
9.814,1500,-0.01174863,-0.06724176,-0.3018489,179.739296250211
9.824,1500,0.18225137,0.02575824,-0.0898489,179.739296250211
9.834,1500,-0.04374863,-0.07524176,-0.0758489,179.739296250211
9.844,1500,0.10325137,0.04575824,0.0291511,179.739296250211
9.854,1500,-0.01174863,0.04175824,-0.0148489,179.739296250211
9.864,1500,-0.09574863,-0.01724176,-0.1198489,179.739296250211
9.874,1500,-0.05774863,0.01075824,-0.1298489,179.739296250211
9.884,1500,-0.17474863,-0.04724176,-0.1898489,179.739296250211
9.894,1500,0.15125137,0.06075824,-0.1018489,179.739296250211
9.904,1500,0.29725137,0.05675824,-0.0768489,179.739296250211
9.915,1500,-0.15874863,-0.06824176,-0.1298489,179.739296250211
9.925,1500,0.05325137,0.04575824,0.1181511,179.739296250211
9.935,1500,0.06125137,-0.00024176,0.1281511,179.739296250211
9.944,1500,0.08325137,-0.01924176,-0.0038489,179.739296250211
9.955,1500,0.07625137,0.07575824,0.1611511,179.739296250211
9.965,1500,-0.02774863,0.02575824,0.1511511,179.739296250211
9.975,1500,-0.28774863,-0.05824176,0.0151511,179.739296250211
9.985,1500,-0.10374863,-0.02024176,0.0091511,197.117491895387
9.995,1500,-0.03874863,0.03775824,0.2171511,197.117491895387
10.004,1500,-0.03874863,0.03375824,0.1341511,197.117491895387
10.014,1500,-0.16874863,-0.05424176,-0.0118489,197.117491895387
10.024,1500,-0.05574863,0.03375824,0.0481511,197.117491895387
10.034,1500,-0.05274863,-0.01024176,-0.1408489,197.117491895387
10.044,1500,-0.20474863,-0.14624176,-0.3348489,197.117491895387
10.054,1500,0.02125137,0.00075824,-0.1628489,197.117491895387
10.064,1500,-0.05474863,-0.00824176,-0.2878489,197.117491895387
10.075,1500,-0.03474863,-0.08224176,-0.3658489,197.117491895387
10.085,1500,0.13825137,0.02175824,-0.0718489,197.117491895387
10.094,1500,0.24025137,0.05075824,-0.0698489,197.117491895387
10.104,1500,0.01325137,-0.00324176,-0.0038489,197.117491895387
10.114,1500,0.01025137,0.04375824,0.0701511,197.117491895387
10.124,1500,-0.00774863,0.00575824,0.0281511,197.117491895387
10.135,1500,0.12525137,0.09375824,-0.0458489,197.117491895387
10.145,1500,0.04425137,0.06575824,-0.0158489,197.117491895387
10.155,1500,-0.03974863,0.08275824,0.0661511,197.117491895387
10.165,1500,0.30925137,0.17875824,0.1181511,197.117491895387
10.174,1500,0.18125137,0.16675824,0.0781511,197.117491895387
10.185,1500,-0.05974863,0.07975824,-0.1278489,197.117491895387
10.194,1500,0.11025137,0.11575824,-0.0658489,197.117491895387
10.205,1500,0.13825137,0.11775824,-0.0238489,197.117491895387
10.215,1500,0.12525137,0.14675824,0.0631511,197.117491895387
10.224,1500,0.10025137,0.12475824,0.0131511,197.117491895387
10.234,1500,0.08625137,0.09775824,-0.0088489,197.117491895387
10.245,1500,0.04225137,0.08275824,-0.0018489,197.117491895387
10.254,1500,0.02525137,0.05975824,-0.0058489,197.117491895387
10.264,1500,0.02625137,0.04875824,0.0061511,197.117491895387
10.274,1500,-0.01474863,0.02375824,0.0031511,197.117491895387
10.284,1500,0.00625137,0.02175824,0.0011511,197.117491895387
10.294,1500,0.00525137,0.01875824,-0.0028489,197.117491895387
10.304,1500,-0.01074863,0.01075824,0.0031511,197.117491895387
10.314,1500,0.00225137,0.00475824,-0.0018489,197.117491895387
10.325,1500,0.02225137,0.01275824,-0.0028489,197.117491895387
10.334,1500,0.01125137,0.00775824,-0.0028489,197.117491895387
10.344,1500,0.01025137,0.00475824,0.0021511,197.117491895387
10.355,1500,0.01225137,0.00275824,-0.0028489,197.117491895387
10.364,1500,0.00825137,0.00675824,-0.0018489,197.117491895387
10.374,1500,0.00125137,0.00175824,0.0021511,197.117491895387
10.385,1500,0.00825137,0.00375824,0.0001511,197.117491895387
10.394,1500,0.00725137,0.00375824,0.0021511,197.117491895387
10.404,1500,-0.00674863,-0.00224176,-0.0058489,197.117491895387
10.415,1500,-0.00374863,-0.00224176,-0.0028489,197.117491895387
10.424,1500,-0.00074863,0.00675824,0.0041511,197.117491895387
10.434,1500,0.00025137,0.00375824,0.0071511,197.117491895387
10.445,1500,0.00425137,0.00875824,-0.0038489,197.117491895387
10.454,1500,0.00925137,0.01075824,-0.0088489,197.117491895387
10.465,1500,0.00325137,-0.00024176,0.0001511,197.117491895387
10.474,1500,0.01225137,-0.00224176,0.0011511,197.117491895387
10.484,1500,0.00325137,0.00675824,-0.0048489,197.117491895387
10.495,1500,-0.00474863,0.00975824,-0.0028489,45.6715570334737
10.504,1500,0.00225137,0.00175824,0.0031511,45.6715570334737
10.514,1500,0.00425137,0.00275824,-0.0018489,45.6715570334737
10.525,1500,-0.00174863,0.00475824,0.0041511,45.6715570334737
10.534,1500,-0.00274863,0.00075824,0.0001511,45.6715570334737
10.544,1500,0.00625137,0.00475824,0.0001511,45.6715570334737
10.555,1500,0.00625137,0.00575824,0.0011511,45.6715570334737
10.564,1500,0.00325137,0.00675824,-0.0028489,45.6715570334737
10.574,1500,-0.00074863,0.00475824,0.0021511,45.6715570334737
10.585,1500,0.00425137,0.00275824,0.0031511,45.6715570334737
10.594,1500,0.00325137,-0.00124176,-0.0028489,45.6715570334737
10.604,1500,-0.00074863,0.00475824,-0.0038489,45.6715570334737
10.615,1500,0.00125137,0.00775824,-0.0038489,45.6715570334737
10.624,1500,0.00425137,0.00075824,-0.0018489,45.6715570334737
10.635,1500,-0.00274863,0.00275824,-0.0058489,45.6715570334737
10.644,1500,-0.00274863,0.00275824,0.0001511,45.6715570334737
10.654,1500,-0.00074863,0.00275824,-0.0018489,45.6715570334737
10.664,1500,-0.00474863,0.00375824,0.0041511,45.6715570334737
10.675,1500,-0.00074863,0.00375824,-0.0018489,45.6715570334737
10.685,1500,0.01125137,0.00775824,0.0031511,45.6715570334737
10.695,1500,-0.00074863,0.00375824,0.0021511,45.6715570334737
10.706,1500,0.00425137,0.00375824,0.0011511,45.6715570334737
10.715,1500,0.00925137,0.00375824,0.0011511,45.6715570334737
10.726,1500,0.00425137,0.00475824,-0.0038489,45.6715570334737
10.735,1500,-0.00074863,0.00575824,-0.0048489,45.6715570334737
10.745,1500,0.00425137,-0.00024176,-0.0008489,45.6715570334737
10.755,1500,-0.00074863,-0.00124176,-0.0038489,45.6715570334737
10.764,1500,-0.00074863,0.00875824,-0.0038489,45.6715570334737
10.774,1500,-0.00074863,0.00275824,0.0041511,45.6715570334737
10.785,1500,0.00625137,-0.00224176,-0.0018489,45.6715570334737
10.794,1500,0.00325137,0.00475824,-0.0018489,45.6715570334737
10.804,1500,-0.00074863,0.00375824,0.0011511,45.6715570334737
10.814,1500,0.01125137,0.00275824,0.0041511,45.6715570334737
10.824,1500,0.00525137,0.00175824,0.0011511,45.6715570334737
10.835,1500,0.00225137,0.00375824,0.0001511,45.6715570334737
10.845,1500,0.00525137,0.00175824,0.0011511,45.6715570334737
10.855,1500,0.00725137,0.00175824,-0.0008489,45.6715570334737
10.865,1500,0.00125137,0.00375824,-0.0008489,45.6715570334737
10.875,1500,-0.00074863,0.00175824,0.0001511,45.6715570334737
10.885,1500,-0.00174863,0.01075824,0.0031511,45.6715570334737
10.895,1500,0.00425137,0.00275824,-0.0038489,45.6715570334737
10.905,1500,0.00225137,0.00475824,0.0011511,45.6715570334737
10.915,1500,0.00825137,0.00475824,-0.0048489,45.6715570334737
10.925,1500,0.00525137,0.00475824,-0.0038489,45.6715570334737
10.935,1500,-0.00074863,-0.00024176,0.0021511,45.6715570334737
10.945,1500,0.00425137,0.00275824,-0.0028489,45.6715570334737
10.955,1500,0.00825137,0.00375824,-0.0108489,45.6715570334737
10.965,1500,0.00625137,0.00575824,0.0051511,45.6715570334737
10.975,1500,-0.00174863,0.00075824,0.0001511,45.6715570334737
10.984,1500,-0.00074863,-0.00124176,-0.0018489,45.6715570334737
10.995,1500,-0.00674863,0.00475824,0.0021511,45.6715570334737
11.005,1500,-0.00374863,-0.00024176,-0.0008489,45.6715570334737
11.014,1500,0.00125137,0.00175824,-0.0048489,0
11.025,1500,-0.00474863,0.00475824,-0.0068489,0
11.035,1500,0.00125137,0.00475824,-0.0028489,0
11.044,1500,0.00525137,0.00075824,-0.0028489,0
11.055,1500,0.01225137,0.00675824,0.0001511,0
11.064,1500,-0.00074863,0.00175824,-0.0008489,0
11.074,1500,0.00625137,0.00275824,-0.0008489,0
11.085,1500,0.00625137,0.00375824,-0.0028489,0
11.094,1500,0.00525137,0.00075824,-0.0028489,0
11.105,1500,0.00125137,0.00275824,-0.0028489,0
11.115,1500,-0.00174863,0.00275824,-0.0008489,0
11.124,1500,0.00225137,0.00375824,-0.0048489,0
11.135,1500,-0.00574863,0.00575824,-0.0018489,0
11.144,1500,0.00325137,0.00275824,-0.0008489,0
11.154,1500,-0.00174863,0.00475824,-0.0028489,0
11.165,1500,0.00625137,0.00275824,0.0011511,0
11.174,1500,0.00925137,0.00175824,-0.0018489,0
11.185,1500,0.00625137,0.00275824,-0.0018489,0
11.195,1500,0.00725137,-0.00124176,0.0021511,0
11.204,1500,0.00625137,-0.00224176,0.0041511,0
11.215,1500,0.00125137,0.00275824,-0.0018489,0
11.225,1500,0.00925137,0.00475824,-0.0028489,0
11.234,1500,-0.00374863,-0.00224176,0.0011511,0
11.245,1500,-0.00274863,0.00375824,-0.0018489,0
11.254,1500,-0.00274863,0.00575824,-0.0028489,0
11.264,1500,-0.00174863,0.00375824,-0.0008489,0
11.275,1500,-0.00174863,0.00175824,-0.0038489,0
11.284,1500,0.00325137,0.00775824,-0.0018489,0
11.295,1500,0.00825137,0.00375824,0.0011511,0
11.305,1500,0.00925137,-0.00124176,0.0011511,0
11.314,1500,0.00525137,0.00375824,-0.0018489,0
11.325,1500,0.00625137,0.00375824,-0.0028489,0
11.335,1500,0.00225137,0.00275824,0.0021511,0
11.344,1500,0.00725137,0.00175824,-0.0028489,0
11.355,1500,-0.00074863,0.00475824,-0.0018489,0
11.365,1500,-0.00574863,-0.00124176,-0.0028489,0
11.374,1500,-0.00374863,0.00175824,-0.0018489,0
11.385,1500,-0.00774863,0.00375824,-0.0008489,0
11.394,1500,0.01125137,0.00175824,-0.0008489,0
11.405,1500,0.00025137,0.00275824,-0.0028489,0
11.415,1500,0.00525137,0.00475824,0.0001511,0
11.424,1500,0.00725137,0.00375824,0.0031511,0
11.435,1500,0.00725137,-0.00224176,0.0011511,0
11.445,1500,0.00525137,0.00175824,-0.0038489,0
11.455,1500,-0.00074863,0.00475824,-0.0018489,0
11.465,1500,0.00325137,0.00075824,0.0011511,0
11.475,1500,-0.00474863,0.00075824,-0.0028489,0
11.485,1500,0.00025137,0.00975824,-0.0008489,0
11.496,1500,-0.00674863,-0.00124176,-0.0038489,0
11.505,1500,-0.00074863,-0.00024176,0.0011511,0
11.516,1500,-0.00374863,0.00575824,-0.0028489,0
11.526,1500,0.00225137,0.00575824,-0.0028489,0
11.535,1500,0.01325137,-0.00124176,-0.0018489,0
11.544,1500,0.00125137,-0.00024176,-0.0058489,0
11.555,1500,0.01025137,0.00875824,-0.0038489,0
11.565,1500,0.00025137,-0.00324176,-0.0018489,0
11.575,1500,-0.00074863,0.00175824,-0.0018489,0
11.585,1500,0.00025137,0.00375824,-0.0048489,0
11.594,1500,-0.00474863,0.00475824,-0.0048489,0
11.605,1500,-0.00174863,0.00075824,0.0001511,0
11.615,1500,0.00025137,0.00275824,-0.0008489,0
11.624,1500,0.00125137,0.00675824,-0.0038489,0
11.635,1500,-0.00074863,0.00175824,-0.0048489,0
11.645,1500,0.00325137,0.00475824,-0.0008489,0
11.654,1500,0.01025137,0.00075824,-0.0008489,0
11.665,1500,0.00825137,0.00275824,0.0071511,0
11.675,1500,0.00325137,0.00375824,-0.0008489,0
11.685,1500,0.00325137,0.00375824,0.0001511,0
11.695,1500,0.00525137,0.00175824,0.0031511,0
11.704,1500,-0.00374863,0.00475824,0.0011511,0
11.715,1500,-0.00274863,0.00375824,-0.0018489,0
11.725,1500,-0.00174863,0.00675824,-0.0008489,0
11.734,1500,-0.00074863,0.00075824,0.0041511,0
11.744,1500,0.00225137,0.00375824,-0.0028489,0
11.755,1500,0.00325137,0.00775824,0.0011511,0
11.765,1500,0.00725137,0.00175824,-0.0018489,0
11.775,1500,0.00225137,0.00175824,-0.0058489,0
11.785,1500,0.00925137,0.00675824,-0.0038489,0
11.794,1500,0.00525137,0.00475824,-0.0028489,0
11.805,1500,0.00525137,-0.00124176,0.0031511,0
11.815,1500,0.00325137,0.00175824,-0.0018489,0
11.825,1500,-0.00174863,0.00675824,-0.0038489,0
11.836,1500,-0.00174863,0.00175824,-0.0018489,0
11.845,1500,0.00425137,0.00275824,0.0011511,0
11.855,1500,0.00125137,0.00875824,-0.0018489,0
11.865,1500,-0.00174863,0.00275824,0.0021511,0
11.875,1500,-0.00274863,0.00375824,-0.0008489,0
11.885,1500,0.00425137,0.00575824,0.0011511,0
11.895,1500,0.00525137,0.00175824,-0.0028489,0
11.905,1500,0.00425137,0.00175824,0.0041511,0
11.915,1500,0.00525137,0.00275824,-0.0028489,0
11.925,1500,0.00925137,-0.00324176,0.0011511,0
11.936,1500,0.00625137,-0.00024176,0.0001511,0
11.946,1500,-0.00274863,0.00775824,-0.0058489,0
11.955,1500,-0.00574863,0.00475824,0.0001511,0
11.965,1500,-0.00174863,-0.00124176,-0.0048489,0
11.975,1500,-0.00274863,0.00475824,0.0001511,0
11.985,1500,-0.00074863,0.00575824,-0.0038489,0
11.995,1500,0.00525137,0.00175824,0.0011511,0
12.005,1500,0.00825137,0.00075824,0.0021511,0
12.015,1500,0.00225137,0.00475824,0.0021511,0
12.025,1500,0.01025137,0.00475824,0.0011511,0
12.035,1500,0.00025137,0.00075824,0.0001511,0
12.046,1500,0.00125137,0.00075824,0.0021511,0
12.056,1500,0.00425137,0.00675824,-0.0018489,0
12.065,1500,-0.00474863,0.00275824,-0.0008489,0
12.076,1500,0.00125137,0.00175824,0.0011511,0
12.085,1500,0.00125137,0.00475824,-0.0048489,0
12.096,1500,0.00325137,0.00675824,-0.0048489,0
12.105,1500,0.00025137,0.00275824,-0.0038489,0
12.115,1500,0.00825137,-0.00024176,-0.0018489,0
12.125,1500,0.00625137,0.00175824,-0.0048489,0
12.135,1500,0.00125137,0.00375824,-0.0008489,0
12.145,1500,0.00925137,-0.00024176,0.0021511,0
12.155,1500,0.00925137,0.00575824,0.0041511,0
12.165,1500,0.00025137,0.00075824,0.0021511,0
12.176,1500,-0.00374863,0.00075824,-0.0098489,0
12.186,1500,-0.00074863,0.00275824,-0.0018489,0
12.195,1500,0.00125137,-0.00024176,-0.0088489,0
12.205,1500,0.00025137,0.00075824,-0.0048489,0
12.215,1500,0.00125137,0.00775824,-0.0058489,0
12.225,1500,0.00725137,0.00475824,-0.0078489,0
12.235,1500,0.00525137,-0.00224176,0.0011511,0
12.245,1500,0.00825137,0.00175824,0.0001511,0
12.255,1500,0.00625137,0.00575824,-0.0038489,0
12.265,1500,0.00025137,0.00075824,-0.0038489,0
12.275,1500,0.00425137,0.00375824,-0.0048489,0
12.285,1500,-0.00074863,0.00275824,-0.0008489,0
12.295,1500,0.00325137,0.00175824,-0.0028489,0
12.305,1500,-0.00074863,0.00175824,0.0021511,0
12.316,1500,0.00225137,0.00075824,0.0061511,0
12.326,1500,-0.00274863,0.00275824,0.0071511,0
12.336,1500,0.00025137,0.00275824,0.0031511,0
12.346,1500,0.00125137,0.00675824,0.0031511,0
12.355,1500,0.00625137,0.00275824,0.0011511,0
12.365,1500,0.00625137,0.00875824,-0.0028489,0
12.375,1500,0.00425137,0.00475824,-0.0058489,0
12.385,1500,0.00825137,0.00175824,-0.0068489,0
12.395,1500,0.00525137,0.00275824,-0.0008489,0
12.405,1500,0.00025137,-0.00024176,0.0051511,0
12.416,1500,0.00625137,0.00175824,0.0041511,0
12.426,1500,0.00025137,0.00175824,0.0001511,0
12.436,1500,-0.00374863,0.00475824,-0.0008489,0
12.445,1500,0.00025137,0.00475824,-0.0098489,0
12.455,1500,0.00125137,0.00675824,-0.0108489,0
12.465,1500,0.00625137,0.00375824,-0.0108489,0
12.476,1500,0.00225137,0.00375824,0.0071511,0
12.485,1500,0.00525137,-0.00224176,-0.0008489,0
12.495,1500,0.00625137,0.00075824,0.0031511,0
12.505,1500,0.00325137,0.00675824,0.0121511,0
12.516,1500,0.00325137,0.00075824,-0.0038489,0
12.525,1500,-0.00274863,0.00575824,-0.0078489,0
12.536,1500,0.00025137,0.00575824,0.0031511,0
12.545,1500,0.00225137,0.00075824,0.0021511,0
12.556,1500,-0.00074863,0.00375824,0.0041511,0
12.566,1500,-0.00074863,0.00475824,0.0021511,0
12.576,1500,0.00125137,0.00575824,-0.0058489,0
12.586,1500,0.00225137,0.00375824,-0.0028489,0
12.596,1500,0.00525137,0.00675824,-0.0018489,0
12.606,1500,0.00925137,0.00175824,-0.0028489,0
12.616,1500,0.00325137,0.00475824,-0.0048489,0
12.626,1500,0.00425137,0.00475824,-0.0068489,0
12.636,1500,0.00125137,0.00375824,-0.0048489,0
12.646,1500,0.00125137,0.00175824,-0.0018489,0
12.656,1500,-0.00174863,0.00275824,-0.0008489,0
12.665,1500,-0.00074863,0.00475824,-0.0028489,0
12.675,1500,-0.00074863,0.00175824,0.0001511,0
12.685,1500,0.00125137,0.00175824,0.0011511,0
12.695,1500,0.00325137,0.00775824,-0.0028489,0
12.705,1500,0.00025137,0.00175824,-0.0018489,0
12.715,1500,0.00425137,0.00075824,0.0011511,0
12.725,1500,0.00925137,0.00375824,-0.0028489,0
12.735,1500,0.00525137,0.00175824,-0.0058489,0
12.745,1500,0.00625137,0.00275824,-0.0028489,0
12.755,1500,0.00225137,0.00075824,-0.0058489,0
12.766,1500,0.00725137,0.00175824,-0.0028489,0
12.776,1500,-0.00474863,0.00375824,-0.0058489,0
12.786,1500,-0.00474863,0.00675824,-0.0078489,0
12.796,1500,-0.00174863,0.00275824,-0.0078489,0
12.806,1500,-0.00674863,0.00375824,-0.0028489,0
12.816,1500,-0.00274863,-0.00124176,-0.0048489,0
12.826,1500,0.00125137,0.00675824,-0.0038489,0
12.836,1500,0.00625137,0.00475824,-0.0018489,0
12.846,1500,0.00425137,-0.00024176,-0.0098489,0
12.855,1500,0.00825137,0.00375824,0.0001511,0
12.865,1500,0.00725137,0.00175824,-0.0018489,0
12.875,1500,0.00325137,0.00175824,0.0021511,0
12.885,1500,-0.00074863,0.00075824,0.0061511,0
12.895,1500,-0.00274863,0.00775824,-0.0038489,0
12.906,1500,-0.00174863,0.00675824,-0.0008489,0
12.915,1500,0.00425137,-0.00224176,-0.0038489,0
12.926,1500,-0.00074863,0.00575824,-0.0038489,0
12.936,1500,0.00525137,0.00575824,-0.0128489,0
12.946,1500,0.00325137,-0.00124176,-0.0068489,0
12.956,1500,0.00325137,-0.00024176,-0.0028489,0
12.966,1500,0.00225137,0.00575824,0.0021511,0
12.976,1500,0.00525137,0.00575824,0.0041511,0
12.985,1500,0.00425137,0.00075824,0.0051511,0
12.995,1500,0.00125137,-0.00024176,-0.0008489,0
13.005,1500,0.00025137,0.00375824,-0.0038489,0
13.015,1500,-0.00374863,0.00075824,-0.0008489,0
13.025,1500,-0.00174863,0.00075824,-0.0018489,0
13.035,1500,-0.00174863,0.00175824,-0.0018489,0
13.045,1500,-0.00074863,0.00075824,-0.0038489,0
13.055,1500,0.00125137,0.00775824,0.0021511,0
13.065,1500,0.00425137,0.00375824,-0.0028489,0
13.075,1500,0.00825137,0.00075824,-0.0028489,0
13.086,1500,0.00725137,0.00275824,0.0001511,0
13.096,1500,0.00125137,0.00875824,-0.0088489,0
13.106,1500,0.00225137,0.00075824,-0.0038489,0
13.116,1500,0.00325137,-0.00424176,0.0011511,0
13.126,1500,-0.00374863,0.00675824,0.0011511,0
13.136,1500,-0.00074863,0.00775824,-0.0068489,0
13.145,1500,-0.00074863,-0.00224176,-0.0048489,0
13.156,1500,-0.00374863,0.00375824,-0.0038489,0
13.166,1500,0.00125137,0.00775824,-0.0008489,0
13.176,1500,-0.00074863,0.00275824,-0.0008489,0
13.186,1500,0.00925137,-0.00024176,-0.0048489,0
13.196,1500,0.00825137,0.00575824,0.0031511,0
13.205,1500,0.00125137,0.00175824,0.0021511,0
13.215,1500,0.00725137,0.00175824,-0.0018489,0
13.225,1500,0.00625137,0.00275824,0.0001511,0
13.236,1500,0.00025137,-0.00124176,-0.0058489,0
13.246,1500,-0.00274863,0.00475824,-0.0028489,0
13.256,1500,0.00025137,0.00575824,-0.0018489,0
13.266,1500,-0.00174863,0.00575824,-0.0068489,0
13.276,1500,0.00225137,-0.00024176,-0.0008489,0
13.286,1500,0.00225137,0.00575824,0.0021511,0
13.296,1500,0.00525137,0.00475824,-0.0028489,0
13.306,1500,0.00625137,0.00175824,-0.0008489,0
13.316,1500,0.00425137,0.00275824,-0.0008489,0
13.326,1500,-0.00374863,0.00975824,-0.0048489,0
13.335,1500,0.00625137,0.00175824,-0.0038489,0
13.346,1500,0.00625137,-0.00324176,0.0001511,0
13.355,1500,0.00125137,0.00675824,-0.0068489,0
13.366,1500,-0.00274863,0.00575824,-0.0018489,0
13.376,1500,0.00225137,0.00075824,0.0021511,0
13.386,1500,0.00225137,-0.00024176,-0.0018489,0
13.396,1500,-0.00274863,0.00675824,-0.0028489,0
13.406,1500,0.00025137,0.00875824,-0.0018489,0
13.416,1500,0.00425137,0.00275824,0.0051511,0
13.426,1500,0.00825137,0.00575824,0.0021511,0
13.436,1500,0.00725137,0.00775824,0.0021511,0
13.445,1500,0.00125137,0.00475824,-0.0038489,0
13.456,1500,0.00325137,0.00275824,0.0001511,0
13.466,1500,0.00525137,0.00275824,-0.0018489,0
13.475,1500,0.00025137,0.00075824,-0.0028489,0
13.486,1500,0.00025137,0.00475824,-0.0058489,0
13.495,1500,0.00225137,0.00475824,-0.0048489,0
13.505,1500,0.00325137,0.00175824,0.0001511,0
13.516,1500,-0.00274863,-0.00024176,-0.0028489,0
13.525,1500,0.00225137,0.00575824,-0.0038489,0
13.535,1500,0.00225137,0.00575824,-0.0018489,0
13.546,1500,0.00125137,0.00275824,-0.0028489,0
13.555,1500,0.00525137,0.00375824,-0.0038489,0
13.566,1500,0.00325137,0.00275824,0.0001511,0
13.576,1500,0.00725137,-0.00324176,0.0041511,0
13.585,1500,0.00625137,-0.00224176,-0.0008489,0
13.596,1500,-0.00374863,0.00475824,0.0011511,0
13.606,1500,0.00025137,-0.00024176,0.0041511,0
13.615,1500,0.00225137,-0.00524176,0.0031511,0
13.626,1500,-0.00074863,0.00575824,0.0011511,0
13.635,1500,-0.00074863,0.00275824,-0.0028489,0
13.645,1500,-0.00674863,0.00275824,0.0011511,0
13.656,1500,0.00925137,0.00275824,0.0041511,0
13.665,1500,0.00825137,0.00475824,-0.0038489,0
13.676,1500,0.00125137,0.00675824,0.0051511,0
13.686,1500,0.00325137,0.00075824,0.0011511,0
