Time,Speed,accX,accY,accZ,velocity_magnitude
0.074,1500,0.02425137,0.00475824,-0.0078489,0
0.091,1500,0.02725137,0.00675824,0.0031511,0
0.1,1500,0.03525137,0.00575824,0.0061511,0
0.111,1500,0.03125137,0.00475824,0.0051511,0
0.121,1500,0.01725137,0.00675824,0.0011511,0
0.131,1500,0.01925137,0.00075824,0.0001511,0
0.141,1500,0.01625137,0.00075824,-0.0008489,0
0.151,1500,0.00725137,0.00975824,-0.0138489,0
0.161,1500,0.01525137,0.00475824,-0.0078489,0
0.171,1500,0.01525137,0.00675824,-0.0058489,0
0.181,1500,0.02625137,0.00775824,-0.0038489,0
0.191,1500,0.02725137,0.00775824,0.0001511,0
0.201,1500,0.03225137,0.00475824,0.0001511,0
0.211,1500,0.03125137,-0.00024176,0.0041511,0
0.221,1500,0.03125137,0.00575824,0.0111511,0
0.231,1500,0.02925137,0.00475824,0.0021511,0
0.241,1500,0.02125137,0.00075824,0.0051511,0
0.251,1500,0.02425137,0.00475824,0.0041511,0
0.261,1500,0.00925137,0.00675824,-0.0048489,0
0.271,1500,0.00925137,0.00475824,-0.0078489,0
0.281,1500,0.01425137,0.00575824,-0.0128489,0
0.291,1500,0.01925137,0.00575824,-0.0068489,0
0.301,1500,0.02725137,0.00275824,-0.0038489,0
0.311,1500,0.02825137,0.00575824,0.0041511,0
0.321,1500,0.03325137,0.00375824,0.0001511,0
0.331,1500,0.02925137,0.00275824,0.0071511,0
0.341,1500,0.02725137,0.00275824,0.0051511,0
0.35,1500,0.02525137,0.00775824,-0.0008489,0
0.361,1500,0.02425137,0.00375824,-0.0008489,0
0.37,1500,0.01625137,0.00475824,0.0011511,0
0.381,1500,0.01025137,0.00575824,-0.0058489,0
0.391,1500,0.01025137,0.00675824,-0.0048489,0
0.401,1500,0.02025137,0.00275824,-0.0048489,0
0.411,1500,0.01825137,0.00275824,-0.0078489,0
0.42,1500,0.02125137,0.00675824,0.0011511,0
0.431,1500,0.03425137,0.00675824,0.0031511,0
0.441,1500,0.03325137,-0.00124176,0.0121511,0
0.452,1500,0.03425137,0.00175824,0.0051511,0
0.462,1500,0.02925137,0.00775824,0.0021511,0
0.471,1500,0.02525137,0.00675824,0.0031511,0
0.481,1500,0.01425137,0.00075824,0.0011511,0
0.492,1500,0.01325137,0.00675824,-0.0078489,0
0.501,1500,0.01025137,0.00675824,-0.0048489,0
0.512,1500,0.01225137,0.00575824,-0.0058489,0
0.521,1500,0.02525137,0.00775824,-0.0018489,0
0.532,1500,0.02225137,0.00875824,0.0011511,0
0.541,1500,0.02925137,0.01175824,0.0021511,0
0.551,1500,0.03125137,0.00475824,0.0051511,0
0.561,1500,0.03025137,0.00775824,0.0051511,0
0.571,1500,0.02825137,0.00275824,0.0021511,0
0.581,1500,0.02725137,0.00475824,-0.0008489,0
0.59,1500,0.02725137,0.00175824,0.0011511,0
0.601,1500,0.01925137,0.00275824,0.0031511,0
0.611,1500,0.01525137,0.00275824,-0.0068489,0
0.621,1500,0.01125137,0.00675824,0.0011511,0
0.631,1500,0.00825137,0.00275824,-0.0028489,0
0.641,1500,0.00925137,0.00275824,-0.0068489,0
0.651,1500,0.02125137,0.00475824,-0.0068489,0
0.661,1500,0.02525137,0.00875824,0.0011511,0
0.671,1500,0.02825137,0.00575824,0.0031511,0
0.682,1500,0.03025137,-0.00024176,0.0071511,0
0.691,1500,0.02925137,0.00775824,0.0041511,0
0.702,1500,0.02825137,0.00575824,0.0021511,0
0.711,1500,0.01325137,0.00175824,0.0001511,0
0.721,1500,0.02125137,0.00375824,0.0041511,0
0.731,1500,0.01525137,0.00675824,-0.0048489,0
0.741,1500,0.01725137,0.00275824,-0.0028489,0
0.751,1500,0.01625137,0.00175824,-0.0008489,0
0.761,1500,0.01225137,0.00575824,-0.0118489,0
0.771,1500,0.01925137,0.00875824,-0.0088489,0
0.781,1500,0.02225137,0.00675824,-0.0058489,0
0.791,1500,0.02725137,0.00375824,-0.0028489,0
0.8,1500,0.03025137,0.00575824,-0.0008489,0
0.811,1500,0.02725137,0.00275824,0.0061511,0
0.821,1500,0.02925137,0.00675824,0.0041511,0
0.831,1500,0.02025137,-0.00124176,0.0041511,0
0.841,1500,0.01325137,0.00375824,0.0031511,0
0.851,1500,0.01425137,0.00875824,-0.0048489,0
0.861,1500,0.00525137,0.00275824,-0.0068489,0
0.871,1500,0.00625137,0.00375824,-0.0108489,0
0.881,1500,0.01925137,0.00575824,-0.0108489,0
0.891,1500,0.02425137,0.00775824,0.0001511,0
0.901,1500,0.02725137,0.00475824,0.0001511,0
0.911,1500,0.03425137,0.00075824,0.0041511,0
0.92,1500,0.03625137,0.00675824,0.0101511,0
0.931,1500,0.02525137,0.00475824,-0.0008489,0
0.941,1500,0.02125137,0.00775824,0.0031511,0
0.952,1500,0.02025137,0.00175824,0.0031511,0
0.961,1500,0.01425137,0.00675824,-0.0048489,0
0.971,1500,0.01925137,0.00675824,-0.0038489,0
0.981,1500,0.01925137,0.00575824,-0.0018489,0
0.991,1500,0.01625137,0.00475824,-0.0018489,0
1.001,1500,0.01925137,0.01175824,-0.0048489,0
1.011,1500,0.02425137,0.01575824,-0.0008489,0
1.021,1500,0.06025137,0.04775824,-0.0068489,0
1.031,1500,0.06225137,0.05475824,-0.0058489,0
1.041,1500,0.05625137,0.06075824,0.0061511,0
1.051,1500,0.06825137,0.07575824,-0.0098489,0
1.06,1500,0.08225137,0.07375824,-0.0048489,0
1.071,1500,0.07025137,0.08275824,-0.0118489,0
1.081,1500,0.08425137,0.10475824,-0.0058489,0
1.091,1500,0.08425137,0.11675824,-0.0248489,0
1.101,1500,0.08325137,0.12175824,-0.0108489,0
1.111,1500,0.09725137,0.13575824,-0.0178489,0
1.121,1500,0.11825137,0.11975824,-0.0288489,36.1630587070273
1.131,1500,0.11025137,0.12375824,-0.0068489,36.1630587070273
1.141,1500,0.09325137,0.11675824,-0.0158489,36.1630587070273
1.151,1500,0.14325137,0.10075824,-0.0018489,36.1630587070273
1.161,1500,0.12025137,0.09675824,-0.0108489,36.1630587070273
1.172,1500,0.02425137,0.07775824,0.0171511,36.1630587070273
1.181,1500,0.09225137,0.09775824,0.0001511,36.1630587070273
1.191,1500,0.03925137,0.10475824,-0.0318489,36.1630587070273
1.202,1500,-0.00274863,0.06375824,-0.0238489,36.1630587070273
1.211,1500,-0.02074863,0.04875824,0.0041511,36.1630587070273
1.221,1500,0.03425137,0.02875824,0.0281511,36.1630587070273
1.231,1500,-0.02274863,0.05775824,-0.0088489,36.1630587070273
1.241,1500,0.01925137,0.07175824,-0.0048489,36.1630587070273
1.251,1500,0.04825137,0.01775824,-0.0018489,36.1630587070273
1.261,1500,-0.01874863,-0.04724176,0.0321511,36.1630587070273
1.271,1500,-0.04174863,-0.00624176,0.0471511,36.1630587070273
1.281,1500,-0.01874863,0.05675824,0.0111511,36.1630587070273
1.291,1500,0.01725137,0.04575824,-0.0108489,36.1630587070273
1.301,1500,0.03325137,-0.04624176,-0.0338489,36.1630587070273
1.312,1500,0.09025137,-0.00924176,0.0171511,36.1630587070273
1.321,1500,0.03925137,0.05875824,0.0451511,36.1630587070273
1.331,1500,-0.07874863,0.00775824,-0.0098489,36.1630587070273
1.341,1500,-0.06374863,0.00175824,-0.0358489,36.1630587070273
1.351,1500,-0.03374863,-0.01124176,0.0431511,36.1630587070273
1.361,1500,-0.02774863,0.00375824,0.0421511,36.1630587070273
1.371,1500,-0.00074863,-0.00824176,0.0041511,36.1630587070273
1.381,1500,-0.07374863,0.01375824,-0.0148489,36.1630587070273
1.391,1500,0.05925137,0.04075824,-0.0398489,36.1630587070273
1.401,1500,0.09925137,-0.01624176,0.0211511,36.1630587070273
1.411,1500,0.03425137,-0.00924176,0.0291511,36.1630587070273
1.421,1500,-0.01374863,0.09275824,0.0001511,36.1630587070273
1.431,1500,-0.03474863,0.11675824,-0.0118489,36.1630587070273
1.442,1500,-0.03174863,0.01175824,0.0001511,36.1630587070273
1.452,1500,0.07825137,-0.02724176,0.0251511,36.1630587070273
1.462,1500,0.08725137,0.09675824,-0.0068489,36.1630587070273
1.472,1500,0.02125137,0.15475824,-0.0128489,36.1630587070273
1.481,1500,0.06325137,0.06575824,-0.0058489,36.1630587070273
1.491,1500,-0.01774863,-0.00124176,0.0001511,36.1630587070273
1.501,1500,0.00725137,0.09775824,-0.0578489,36.1630587070273
1.511,1500,-0.05574863,0.13575824,-0.0318489,36.1630587070273
1.521,1500,0.06725137,0.07875824,0.0081511,36.1630587070273
1.532,1500,0.06525137,0.03775824,0.0771511,36.1630587070273
1.542,1500,0.06025137,0.09875824,0.0361511,36.1630587070273
1.552,1500,0.03725137,0.06275824,-0.0008489,36.1630587070273
1.561,1500,-0.05374863,-0.05524176,0.1091511,36.1630587070273
1.571,1500,-0.00474863,-0.08324176,0.0491511,36.1630587070273
1.581,1500,-0.00374863,-0.02924176,0.0001511,36.1630587070273
1.591,1500,-0.23174863,-0.11124176,-0.0378489,36.1630587070273
1.601,1500,-0.14974863,-0.16324176,-0.1378489,36.1630587070273
1.611,1500,-0.08674863,-0.14224176,0.0991511,36.1630587070273
1.622,1500,-0.10474863,-0.13224176,-0.1448489,36.1630587070273
1.631,1500,-0.16474863,-0.05924176,-0.0058489,36.1630587070273
1.642,1500,-0.03274863,-0.10524176,0.0241511,217.846008797086
1.651,1500,0.06725137,-0.12124176,-0.0708489,217.846008797086
1.661,1500,0.06325137,-0.03624176,0.0161511,217.846008797086
1.671,1500,-0.05274863,-0.05724176,-0.0048489,217.846008797086
1.681,1500,0.02625137,-0.01424176,0.0461511,217.846008797086
1.692,1500,0.01525137,0.02975824,0.1131511,217.846008797086
1.701,1500,-0.07974863,0.01375824,0.0461511,217.846008797086
1.711,1500,0.03125137,-0.03324176,0.0641511,217.846008797086
1.721,1500,-0.03374863,-0.05124176,0.1171511,217.846008797086
1.731,1500,-0.10074863,-0.06424176,-0.0178489,217.846008797086
1.741,1500,-0.16274863,0.00075824,0.0471511,217.846008797086
1.753,1500,-0.01874863,-0.00024176,-0.0478489,217.846008797086
1.762,1500,0.01025137,-0.02524176,-0.0398489,217.846008797086
1.771,1500,-0.07174863,-0.02124176,-0.0628489,217.846008797086
1.781,1500,-0.15774863,0.00275824,-0.0298489,217.846008797086
1.791,1500,-0.11174863,0.00975824,0.0211511,217.846008797086
1.801,1500,-0.02974863,0.00275824,-0.0158489,217.846008797086
1.811,1500,-0.02674863,-0.02024176,-0.0578489,217.846008797086
1.821,1500,-0.06274863,-0.00624176,-0.0038489,217.846008797086
1.832,1500,0.02425137,-0.00824176,-0.0178489,217.846008797086
1.841,1500,-0.05274863,-0.03724176,-0.1778489,217.846008797086
1.852,1500,-0.02374863,-0.02624176,-0.1368489,217.846008797086
1.861,1500,-0.17574863,0.02775824,-0.0568489,217.846008797086
1.871,1500,-0.00274863,-0.01824176,-0.1198489,217.846008797086
1.882,1500,-0.09774863,-0.08324176,-0.1228489,217.846008797086
1.892,1500,0.04625137,0.01475824,-0.0528489,217.846008797086
1.901,1500,-0.11574863,0.00075824,-0.0918489,217.846008797086
1.911,1500,0.03825137,-0.02924176,-0.0308489,217.846008797086
1.921,1500,0.09625137,0.05175824,-0.0058489,217.846008797086
1.932,1500,0.08525137,0.03675824,-0.0468489,217.846008797086
1.942,1500,-0.05874863,-0.00824176,-0.0518489,217.846008797086
1.952,1500,0.03925137,0.03875824,-0.0558489,217.846008797086
1.962,1500,0.03325137,0.04375824,-0.0738489,217.846008797086
1.972,1500,-0.09574863,0.02375824,-0.0718489,217.846008797086
1.982,1500,-0.07974863,0.02275824,0.0391511,217.846008797086
1.991,1500,0.08825137,0.01175824,-0.0318489,217.846008797086
2.001,1500,0.06725137,0.03075824,-0.0158489,217.846008797086
2.012,1500,-0.01774863,0.02375824,0.0521511,217.846008797086
2.022,1500,0.11225137,0.12375824,0.0801511,217.846008797086
2.032,1500,-0.08374863,0.05775824,-0.0428489,217.846008797086
2.042,1500,0.04725137,0.05575824,-0.0318489,217.846008797086
2.051,1500,0.13725137,0.12475824,0.1221511,217.846008797086
2.062,1500,0.05425137,0.10175824,-0.0308489,217.846008797086
2.072,1500,0.03525137,0.05775824,0.0111511,217.846008797086
2.082,1500,0.17225137,0.17875824,0.2131511,217.846008797086
2.092,1500,-0.09974863,-0.07724176,-0.1248489,217.846008797086
2.102,1500,0.11125137,0.08675824,-0.0128489,217.846008797086
2.112,1500,0.16825137,0.08975824,0.0281511,217.846008797086
2.122,1500,0.10125137,-0.01024176,0.0821511,217.846008797086
2.132,1500,-0.22374863,-0.03224176,0.0991511,217.846008797086
2.142,1500,-0.05974863,-0.05124176,-0.0088489,217.846008797086
2.152,1500,0.15525137,-0.08324176,0.0571511,217.846008797086
2.162,1500,-0.03474863,-0.10624176,-0.1018489,193.316851508419
2.172,1500,-0.05274863,-0.12724176,-0.0728489,193.316851508419
2.182,1500,-0.00474863,-0.10424176,-0.0388489,193.316851508419
2.192,1500,-0.06874863,-0.15024176,-0.0738489,193.316851508419
2.202,1500,-0.08174863,-0.17624176,0.0531511,193.316851508419
2.212,1500,-0.02974863,-0.10924176,0.0451511,193.316851508419
2.222,1500,-0.00374863,-0.04924176,0.0071511,193.316851508419
2.232,1500,-0.05674863,-0.04424176,-0.0448489,193.316851508419
2.242,1500,0.00525137,-0.04324176,0.0271511,193.316851508419
2.252,1500,0.02125137,-0.05624176,0.0181511,193.316851508419
2.262,1500,-0.03074863,-0.04324176,0.0421511,193.316851508419
2.272,1500,-0.00274863,0.01675824,0.0101511,193.316851508419
2.282,1500,0.03525137,0.02175824,0.0061511,193.316851508419
2.291,1500,0.06325137,0.02475824,0.0121511,193.316851508419
2.301,1500,0.00025137,-0.00224176,-0.0378489,193.316851508419
2.311,1500,-0.02374863,-0.01924176,0.0091511,193.316851508419
2.321,1500,-0.00674863,-0.01024176,-0.0018489,193.316851508419
2.331,1500,0.04525137,0.04275824,0.0411511,193.316851508419
2.342,1500,-0.02474863,0.00475824,0.0151511,193.316851508419
2.352,1500,0.04925137,0.01675824,-0.0178489,193.316851508419
2.362,1500,0.01525137,-0.02624176,-0.0348489,193.316851508419
2.372,1500,-0.04774863,-0.02824176,-0.0048489,193.316851508419
2.382,1500,0.00325137,0.04875824,0.0431511,193.316851508419
2.392,1500,-0.05274863,0.00375824,-0.0138489,193.316851508419
2.402,1500,-0.06574863,-0.00924176,0.0111511,193.316851508419
2.412,1500,-0.04074863,-0.01324176,-0.0108489,193.316851508419
2.422,1500,-0.00674863,0.00375824,0.0261511,193.316851508419
2.432,1500,-0.01374863,-0.01324176,0.0041511,193.316851508419
2.442,1500,-0.01774863,0.04275824,-0.0058489,193.316851508419
2.451,1500,0.01125137,0.02775824,-0.0158489,193.316851508419
2.462,1500,-0.04874863,0.00575824,0.0061511,193.316851508419
2.471,1500,-0.01774863,0.01475824,0.0001511,193.316851508419
2.482,1500,-0.03974863,-0.01224176,0.0071511,193.316851508419
2.492,1500,0.01625137,0.01275824,0.0351511,193.316851508419
2.502,1500,-0.00074863,0.03675824,-0.0108489,193.316851508419
2.512,1500,-0.04474863,-0.00024176,-0.0278489,193.316851508419
2.522,1500,0.00725137,-0.00624176,-0.0338489,193.316851508419
2.532,1500,0.00825137,0.00075824,-0.0518489,193.316851508419
2.543,1500,-0.01774863,0.01175824,0.0141511,193.316851508419
2.552,1500,0.02525137,0.05475824,-0.0098489,193.316851508419
2.562,1500,-0.03874863,0.01375824,-0.0168489,193.316851508419
2.572,1500,0.00425137,0.02875824,0.0361511,193.316851508419
2.583,1500,0.07025137,0.06675824,0.0241511,193.316851508419
2.593,1500,0.02425137,0.04675824,-0.0058489,193.316851508419
2.602,1500,0.01925137,0.06575824,-0.0078489,193.316851508419
2.612,1500,0.04625137,0.07175824,0.0111511,193.316851508419
2.622,1500,0.03625137,0.06175824,0.0061511,193.316851508419
2.632,1500,0.02925137,0.05575824,-0.0168489,193.316851508419
2.642,1500,0.03425137,0.05275824,-0.0238489,193.316851508419
2.652,1500,0.01625137,0.03575824,0.0191511,193.316851508419
2.663,1500,0.09725137,0.06675824,0.0311511,193.316851508419
2.673,1500,-0.03274863,0.02975824,-0.0238489,193.316851508419
2.682,1500,0.04725137,0.07975824,-0.0068489,167.513913923356
2.692,1500,0.03025137,0.07775824,0.0001511,167.513913923356
2.702,1500,0.04225137,0.06575824,0.0071511,167.513913923356
2.712,1500,-0.05374863,0.03275824,-0.0048489,167.513913923356
2.722,1500,-0.00974863,0.02475824,-0.0108489,167.513913923356
2.732,1500,-0.05974863,-0.03824176,0.0141511,167.513913923356
2.742,1500,-0.03274863,-0.09524176,0.0181511,167.513913923356
2.752,1500,-0.06874863,-0.08924176,0.0231511,167.513913923356
2.763,1500,-0.19174863,-0.13324176,-0.0328489,167.513913923356
2.772,1500,-0.03274863,-0.10824176,0.0171511,167.513913923356
2.782,1500,-0.00474863,-0.11424176,-0.0188489,167.513913923356
2.792,1500,-0.07274863,-0.10724176,0.0111511,167.513913923356
2.802,1500,-0.00174863,-0.10824176,-0.0048489,167.513913923356
2.812,1500,-0.00574863,-0.10524176,0.0021511,167.513913923356
2.822,1500,0.02825137,-0.06724176,-0.0108489,167.513913923356
2.832,1500,-0.11374863,-0.07524176,-0.0308489,167.513913923356
2.842,1500,0.00425137,-0.03924176,0.0031511,167.513913923356
2.852,1500,0.03025137,-0.03924176,0.0081511,167.513913923356
2.862,1500,0.04425137,-0.00624176,0.0321511,167.513913923356
2.872,1500,-0.03374863,-0.01024176,0.0361511,167.513913923356
2.881,1500,-0.03574863,-0.00424176,-0.0048489,167.513913923356
2.892,1500,0.01025137,-0.00424176,-0.0138489,167.513913923356
2.902,1500,0.01425137,-0.01424176,-0.0058489,167.513913923356
2.912,1500,-0.02274863,-0.00724176,-0.0078489,167.513913923356
2.922,1500,-0.02374863,-0.01524176,0.0041511,167.513913923356
2.931,1500,-0.04174863,0.03775824,0.0121511,167.513913923356
2.942,1500,-0.07274863,0.02575824,-0.0528489,167.513913923356
2.952,1500,0.02725137,0.01175824,0.0161511,167.513913923356
2.962,1500,0.08825137,0.00175824,-0.0118489,167.513913923356
2.972,1500,0.07125137,0.00075824,-0.0288489,167.513913923356
2.982,1500,-0.05774863,-0.01624176,0.0111511,167.513913923356
2.992,1500,-0.06874863,-0.00224176,0.0141511,167.513913923356
3.002,1500,0.07025137,0.05975824,0.0331511,167.513913923356
3.012,1500,0.02225137,-0.03124176,0.0011511,167.513913923356
3.022,1500,0.05825137,0.03075824,0.1021511,167.513913923356
3.032,1500,0.05725137,0.00275824,-0.0218489,167.513913923356
3.042,1500,-0.06374863,-0.01224176,-0.0048489,167.513913923356
3.052,1500,0.10625137,0.03575824,0.0371511,167.513913923356
3.062,1500,-0.01174863,-0.02824176,-0.0658489,167.513913923356
3.071,1500,0.06525137,0.00675824,-0.0188489,167.513913923356
3.082,1500,-0.07874863,0.00375824,-0.0178489,167.513913923356
3.092,1500,-0.07174863,0.01775824,0.0561511,167.513913923356
3.102,1500,0.01325137,0.00175824,0.0121511,167.513913923356
3.112,1500,0.04725137,-0.00924176,-0.0158489,167.513913923356
3.121,1500,-0.00674863,0.01175824,-0.0258489,167.513913923356
3.132,1500,0.02325137,0.02375824,-0.0018489,167.513913923356
3.141,1500,0.03225137,0.00275824,-0.0078489,167.513913923356
3.152,1500,-0.02374863,0.00475824,0.0101511,167.513913923356
3.162,1500,0.00425137,0.04075824,0.0271511,167.513913923356
3.172,1500,-0.00474863,-0.01624176,-0.0628489,167.513913923356
3.182,1500,0.01525137,0.00675824,-0.0218489,167.513913923356
3.193,1500,0.23425137,0.06675824,0.0931511,167.513913923356
3.203,1500,-0.07574863,-0.02024176,-0.0328489,167.513913923356
3.213,1500,-0.02474863,0.03675824,0.0211511,135.696643779578
3.223,1500,0.01625137,0.06175824,0.1071511,135.696643779578
3.232,1500,-0.01074863,0.03075824,-0.0188489,135.696643779578
3.242,1500,0.10325137,0.07575824,0.1021511,135.696643779578
3.251,1500,0.03425137,-0.01224176,-0.0348489,135.696643779578
3.262,1500,-0.04674863,0.03575824,0.0591511,135.696643779578
3.272,1500,-0.09874863,0.00575824,0.0351511,135.696643779578
3.282,1500,0.10425137,0.00975824,0.0001511,135.696643779578
3.292,1500,0.05225137,0.05375824,-0.0378489,135.696643779578
3.301,1500,0.11625137,0.09775824,0.1951511,135.696643779578
3.312,1500,0.35625137,0.07275824,0.1041511,135.696643779578
3.322,1500,0.18225137,0.08275824,0.1921511,135.696643779578
3.332,1500,0.17625137,-0.02824176,-0.0468489,135.696643779578
3.342,1500,0.01225137,-0.08224176,-0.2028489,135.696643779578
3.351,1500,0.11025137,0.05275824,0.0871511,135.696643779578
3.362,1500,0.00725137,-0.12724176,-0.1668489,135.696643779578
3.372,1500,0.06325137,-0.01824176,-0.0328489,135.696643779578
3.382,1500,-0.12874863,-0.07424176,0.0121511,135.696643779578
3.392,1500,0.03425137,-0.00724176,0.1731511,135.696643779578
3.402,1500,-0.05174863,-0.10624176,0.0421511,135.696643779578
3.412,1500,-0.04774863,-0.11524176,0.0731511,135.696643779578
3.422,1500,-0.27474863,-0.16624176,-0.0958489,135.696643779578
3.432,1500,-0.18174863,-0.14424176,0.0661511,135.696643779578
3.443,1500,-0.00274863,-0.10224176,0.0791511,135.696643779578
3.452,1500,-0.06774863,-0.05024176,0.0571511,135.696643779578
3.462,1500,-0.05374863,-0.07124176,0.0571511,135.696643779578
3.472,1500,-0.10674863,-0.13424176,-0.1128489,135.696643779578
3.482,1500,0.14125137,-0.02824176,-0.0118489,135.696643779578
3.493,1500,0.02625137,-0.01324176,0.0341511,135.696643779578
3.503,1500,0.00425137,-0.00024176,-0.0888489,135.696643779578
3.513,1500,0.00325137,-0.04524176,-0.1298489,135.696643779578
3.523,1500,-0.23074863,-0.09924176,-0.0838489,135.696643779578
3.533,1500,-0.05474863,-0.00424176,0.0181511,135.696643779578
3.542,1500,0.04525137,-0.02824176,-0.0078489,135.696643779578
3.553,1500,-0.03274863,-0.00724176,-0.0048489,135.696643779578
3.563,1500,-0.04274863,-0.02324176,-0.0258489,135.696643779578
3.572,1500,0.02625137,-0.01924176,-0.0348489,135.696643779578
3.583,1500,-0.05274863,-0.08924176,-0.1408489,135.696643779578
3.592,1500,-0.02174863,0.00375824,-0.0258489,135.696643779578
3.603,1500,-0.00474863,-0.03424176,-0.0618489,135.696643779578
3.613,1500,0.04225137,-0.01124176,0.0201511,135.696643779578
3.623,1500,-0.04674863,-0.03524176,-0.0408489,135.696643779578
3.633,1500,-0.03974863,0.00075824,0.0221511,135.696643779578
3.643,1500,-0.00774863,0.02075824,0.0861511,135.696643779578
3.653,1500,-0.04174863,0.00075824,-0.0098489,135.696643779578
3.663,1500,-0.00374863,-0.00524176,-0.0068489,135.696643779578
3.673,1500,0.10025137,0.01275824,0.0271511,135.696643779578
3.683,1500,0.00425137,-0.02924176,-0.0658489,135.696643779578
3.692,1500,0.01625137,-0.00724176,0.0121511,135.696643779578
3.702,1500,0.03425137,0.02375824,0.0641511,135.696643779578
3.712,1500,-0.00374863,-0.03724176,-0.0218489,135.696643779578
3.722,1500,-0.09474863,0.00575824,0.0741511,135.696643779578
3.732,1500,0.06925137,-0.00724176,0.0231511,71.4851274763328
3.742,1500,-0.00274863,0.00275824,0.1061511,71.4851274763328
3.752,1500,0.20725137,0.01575824,0.0571511,71.4851274763328
3.762,1500,-0.00574863,0.00175824,0.0071511,71.4851274763328
3.772,1500,0.09025137,0.01075824,-0.0098489,71.4851274763328
3.782,1500,-0.06174863,-0.04224176,-0.0848489,71.4851274763328
3.792,1500,0.00325137,-0.01624176,-0.0228489,71.4851274763328
3.802,1500,0.02025137,0.01875824,0.0271511,71.4851274763328
3.812,1500,-0.19274863,-0.12124176,-0.1148489,71.4851274763328
3.822,1500,0.05125137,0.05475824,0.0921511,71.4851274763328
3.832,1500,-0.27774863,-0.12324176,-0.1068489,71.4851274763328
3.842,1500,-0.03474863,-0.00024176,0.0751511,71.4851274763328
3.852,1500,-0.02874863,0.00875824,0.0641511,71.4851274763328
3.862,1500,-0.03274863,-0.00024176,0.0901511,71.4851274763328
3.872,1500,0.04725137,0.06875824,0.1711511,71.4851274763328
3.882,1500,0.02525137,0.02675824,0.0921511,71.4851274763328
3.893,1500,0.06725137,-0.01124176,-0.0148489,71.4851274763328
3.903,1500,0.00125137,-0.02224176,-0.0188489,71.4851274763328
3.913,1500,-0.03574863,-0.04924176,-0.0808489,71.4851274763328
3.922,1500,-0.03774863,-0.02224176,-0.0158489,71.4851274763328
3.932,1500,-0.07174863,-0.00724176,0.0251511,71.4851274763328
3.942,1500,0.05525137,-0.00124176,0.0211511,71.4851274763328
3.952,1500,0.01425137,-0.00024176,0.0511511,71.4851274763328
3.963,1500,-0.06374863,-0.02024176,0.0201511,71.4851274763328
3.973,1500,0.00925137,0.01975824,0.1051511,71.4851274763328
3.983,1500,-0.03374863,0.00175824,-0.0188489,71.4851274763328
3.993,1500,-0.02974863,-0.02824176,-0.0758489,71.4851274763328
4.003,1500,-0.03174863,-0.02024176,-0.0228489,71.4851274763328
4.013,1500,-0.05874863,-0.09724176,-0.1918489,71.4851274763328
4.023,1500,0.13525137,0.00575824,0.0191511,71.4851274763328
4.032,1500,-0.10774863,-0.06124176,-0.1018489,71.4851274763328
4.042,1500,0.04425137,0.00475824,0.0561511,71.4851274763328
4.052,1500,-0.15574863,-0.05724176,-0.0708489,71.4851274763328
4.062,1500,-0.05774863,-0.04524176,-0.0008489,71.4851274763328
4.072,1500,0.01625137,0.02875824,0.1041511,71.4851274763328
4.083,1500,0.12025137,-0.01924176,-0.0178489,71.4851274763328
4.093,1500,0.01925137,0.04175824,0.0891511,71.4851274763328
4.103,1500,0.06725137,-0.00724176,0.0031511,71.4851274763328
4.113,1500,0.00125137,0.01375824,0.0501511,71.4851274763328
4.123,1500,0.12425137,0.04075824,0.0101511,71.4851274763328
4.132,1500,-0.06474863,-0.04924176,-0.0778489,71.4851274763328
4.142,1500,-0.06074863,-0.02024176,-0.0588489,71.4851274763328
4.152,1500,0.02925137,-0.03424176,-0.0308489,71.4851274763328
4.162,1500,-0.12074863,-0.05024176,-0.0158489,71.4851274763328
4.172,1500,-0.04974863,-0.02124176,0.0091511,71.4851274763328
4.182,1500,-0.12074863,-0.06024176,0.0071511,71.4851274763328
4.192,1500,-0.04074863,-0.01124176,0.0241511,71.4851274763328
4.202,1500,-0.01474863,-0.00224176,0.0231511,71.4851274763328
4.212,1500,0.03925137,-0.00724176,-0.0158489,71.4851274763328
4.222,1500,0.09525137,-0.01924176,-0.0548489,71.4851274763328
4.232,1500,0.05425137,0.00075824,0.0171511,71.4851274763328
4.242,1500,-0.06374863,-0.06124176,-0.1158489,71.4851274763328
4.252,1500,0.06825137,0.01075824,0.0181511,41.6294629897754
4.262,1500,-0.07974863,-0.07424176,-0.1008489,41.6294629897754
4.272,1500,-0.04674863,-0.00924176,0.0421511,41.6294629897754
4.282,1500,-0.05674863,-0.02324176,0.0131511,41.6294629897754
4.292,1500,0.02925137,-0.01524176,0.0371511,41.6294629897754
4.302,1500,0.01225137,0.03775824,0.1211511,41.6294629897754
4.312,1500,0.06325137,-0.02424176,-0.0038489,41.6294629897754
4.323,1500,0.04125137,0.00175824,0.0331511,41.6294629897754
4.332,1500,-0.04274863,-0.04124176,-0.0588489,41.6294629897754
4.343,1500,-0.02274863,-0.01324176,-0.0278489,41.6294629897754
4.352,1500,0.04525137,-0.01324176,-0.0118489,41.6294629897754
4.362,1500,-0.01974863,-0.02724176,-0.0148489,41.6294629897754
4.373,1500,0.04125137,-0.01724176,-0.0018489,41.6294629897754
4.382,1500,-0.05974863,0.00675824,0.0841511,41.6294629897754
4.392,1500,0.12525137,-0.00424176,0.0131511,41.6294629897754
4.403,1500,-0.08474863,-0.03724176,-0.0188489,41.6294629897754
4.412,1500,0.08325137,0.00675824,0.0231511,41.6294629897754
4.423,1500,-0.00874863,-0.06424176,-0.0998489,41.6294629897754
4.432,1500,0.16525137,0.04775824,0.0431511,41.6294629897754
4.443,1500,-0.02074863,-0.05524176,-0.0608489,41.6294629897754
4.453,1500,-0.12274863,-0.03524176,-0.0538489,41.6294629897754
4.463,1500,-0.06774863,-0.02924176,-0.0558489,41.6294629897754
4.473,1500,-0.18474863,-0.07924176,0.0001511,41.6294629897754
4.482,1500,0.01525137,0.04975824,0.1231511,41.6294629897754
4.493,1500,-0.13974863,-0.02224176,0.0761511,41.6294629897754
4.502,1500,0.01925137,0.00975824,0.0721511,41.6294629897754
4.512,1500,0.23125137,0.11175824,0.2021511,41.6294629897754
4.523,1500,0.02825137,-0.03724176,-0.0288489,41.6294629897754
4.532,1500,0.17925137,0.08275824,0.1261511,41.6294629897754
4.543,1500,-0.06874863,-0.07024176,-0.0948489,41.6294629897754
4.552,1500,0.21125137,0.05975824,0.0531511,41.6294629897754
4.562,1500,0.04025137,-0.05124176,-0.1098489,41.6294629897754
4.573,1500,0.01425137,-0.07324176,-0.1708489,41.6294629897754
4.582,1500,-0.05474863,-0.02424176,-0.0228489,41.6294629897754
4.592,1500,-0.13274863,-0.11424176,-0.1968489,41.6294629897754
4.602,1500,0.02325137,0.01475824,0.0431511,41.6294629897754
4.613,1500,-0.04374863,-0.01724176,0.0101511,41.6294629897754
4.623,1500,0.03525137,-0.00924176,0.0011511,41.6294629897754
4.633,1500,-0.04474863,-0.07524176,-0.1228489,41.6294629897754
4.643,1500,0.00125137,-0.01324176,0.0021511,41.6294629897754
4.653,1500,-0.04174863,-0.00924176,-0.0188489,41.6294629897754
4.663,1500,0.04825137,-0.03824176,-0.0038489,41.6294629897754
4.673,1500,-0.01274863,0.04975824,0.1661511,41.6294629897754
4.682,1500,0.05125137,-0.03124176,0.0311511,41.6294629897754
4.692,1500,0.08725137,0.03775824,0.1101511,41.6294629897754
4.702,1500,0.16425137,0.03275824,-0.0078489,41.6294629897754
4.713,1500,-0.10874863,-0.04924176,-0.1008489,41.6294629897754
4.723,1500,-0.16774863,-0.06224176,-0.0768489,41.6294629897754
4.733,1500,-0.01574863,-0.00924176,-0.0108489,41.6294629897754
4.742,1500,0.08325137,0.00775824,0.0731511,41.6294629897754
4.752,1500,0.06925137,0.00175824,0.0531511,41.6294629897754
4.763,1500,-0.06274863,-0.08124176,-0.1588489,41.6294629897754
4.773,1500,-0.08074863,0.00875824,0.0341511,48.1414513881946
4.783,1500,0.14225137,0.08175824,0.1811511,48.1414513881946
4.793,1500,0.03025137,-0.02124176,-0.0168489,48.1414513881946
4.803,1500,-0.03974863,-0.07424176,-0.2148489,48.1414513881946
4.813,1500,0.35725137,0.06075824,0.0221511,48.1414513881946
4.823,1500,0.12625137,-0.00024176,-0.0378489,48.1414513881946
4.833,1500,-0.10874863,-0.03224176,0.0781511,48.1414513881946
4.843,1500,0.02625137,0.05375824,0.1771511,48.1414513881946
4.853,1500,0.02725137,0.02675824,0.0571511,48.1414513881946
4.863,1500,0.04825137,-0.00424176,0.0371511,48.1414513881946
4.873,1500,0.05125137,-0.02324176,-0.0238489,48.1414513881946
4.883,1500,0.10825137,0.08875824,0.1541511,48.1414513881946
4.893,1500,-0.05674863,-0.03324176,-0.0708489,48.1414513881946
4.902,1500,0.13425137,0.05975824,0.0701511,48.1414513881946
4.912,1500,0.15325137,0.00175824,-0.0658489,48.1414513881946
4.922,1500,-0.02774863,-0.04824176,-0.0528489,48.1414513881946
4.933,1500,-0.11274863,-0.08724176,-0.2048489,48.1414513881946
4.943,1500,0.17325137,0.04075824,0.0721511,48.1414513881946
4.953,1500,0.06125137,0.00575824,0.0741511,48.1414513881946
4.963,1500,0.20425137,0.13675824,0.0891511,48.1414513881946
4.973,1500,0.04625137,-0.06724176,-0.0748489,48.1414513881946
4.983,1500,-0.09374863,-0.00424176,0.0481511,48.1414513881946
4.993,1500,0.25125137,0.09775824,0.1261511,48.1414513881946
5.003,1500,0.26625137,-0.00824176,0.0581511,48.1414513881946
5.013,1500,0.01425137,0.01275824,0.0561511,48.1414513881946
5.023,1500,-0.17674863,-0.07324176,-0.0518489,48.1414513881946
5.033,1500,-0.02974863,-0.00624176,-0.0288489,48.1414513881946
5.043,1500,-0.05074863,-0.01024176,0.0241511,48.1414513881946
5.053,1500,-0.07074863,-0.01724176,-0.0278489,48.1414513881946
5.062,1500,0.03025137,-0.06124176,-0.1478489,48.1414513881946
5.073,1500,-0.21974863,-0.07324176,-0.1468489,48.1414513881946
5.083,1500,-0.01374863,-0.00924176,-0.0908489,48.1414513881946
5.093,1500,0.02725137,0.00875824,-0.0488489,48.1414513881946
5.103,1500,-0.00174863,-0.02224176,-0.0118489,48.1414513881946
5.113,1500,-0.13574863,-0.02124176,0.0491511,48.1414513881946
5.123,1500,0.15825137,0.04575824,-0.0438489,48.1414513881946
5.133,1500,0.00225137,-0.02124176,-0.0218489,48.1414513881946
5.143,1500,0.04925137,-0.05324176,-0.0738489,48.1414513881946
5.153,1500,0.04525137,0.06175824,0.3431511,48.1414513881946
5.162,1500,0.38825137,0.20275824,0.4111511,48.1414513881946
5.173,1500,-0.28974863,-0.12424176,-0.2098489,48.1414513881946
5.183,1500,0.36025137,0.10175824,0.1261511,48.1414513881946
5.193,1500,-0.08474863,-0.00224176,-0.0088489,48.1414513881946
5.203,1500,-0.14474863,-0.11824176,-0.2428489,48.1414513881946
5.213,1500,-0.05374863,0.03375824,0.2041511,48.1414513881946
5.223,1500,0.15025137,0.04375824,0.1381511,48.1414513881946
5.233,1500,-0.21974863,-0.06824176,0.0581511,48.1414513881946
5.243,1500,0.08125137,0.07575824,0.0021511,48.1414513881946
5.253,1500,0.26225137,-0.04124176,-0.0508489,48.1414513881946
5.263,1500,0.06725137,0.06275824,0.2031511,48.1414513881946
5.273,1500,-0.16074863,0.01875824,0.0431511,48.1414513881946
5.283,1500,-0.08574863,-0.08924176,-0.1538489,113.188290800124
5.294,1500,-0.08274863,0.14775824,0.2971511,113.188290800124
5.303,1500,-0.04874863,-0.16324176,-0.2888489,113.188290800124
5.313,1500,0.25625137,0.08175824,0.0921511,113.188290800124
5.324,1500,0.07125137,0.07475824,0.1491511,113.188290800124
5.333,1500,-0.45374863,-0.08024176,-0.1008489,113.188290800124
5.343,1500,0.11125137,0.08175824,-0.0198489,113.188290800124
5.353,1500,0.12725137,-0.07024176,-0.0598489,113.188290800124
5.363,1500,0.10525137,0.04775824,0.2531511,113.188290800124
5.374,1500,-0.00174863,-0.04224176,-0.0788489,113.188290800124
5.383,1500,-0.10774863,-0.06924176,-0.1448489,113.188290800124
5.393,1500,-0.00374863,0.02475824,0.1961511,113.188290800124
5.403,1500,0.08425137,0.00575824,0.0821511,113.188290800124
5.413,1500,-0.29774863,-0.09124176,-0.0658489,113.188290800124
5.423,1500,0.17525137,0.04075824,0.0161511,113.188290800124
5.433,1500,-0.17074863,-0.15024176,-0.0358489,113.188290800124
5.443,1500,0.08125137,-0.10324176,0.0801511,113.188290800124
5.453,1500,-0.07874863,-0.00724176,0.1751511,113.188290800124
5.463,1500,-0.11274863,-0.14724176,-0.1638489,113.188290800124
5.473,1500,0.20625137,-0.03124176,0.0851511,113.188290800124
5.483,1500,-0.13674863,-0.01624176,0.0871511,113.188290800124
5.493,1500,-0.12474863,-0.11824176,-0.1208489,113.188290800124
5.503,1500,0.03725137,-0.01524176,0.0451511,113.188290800124
5.514,1500,-0.01974863,-0.06724176,-0.0558489,113.188290800124
5.524,1500,-0.04574863,-0.01724176,-0.0118489,113.188290800124
5.534,1500,-0.09974863,-0.05424176,-0.0228489,113.188290800124
5.544,1500,-0.04674863,-0.02224176,-0.0068489,113.188290800124
5.554,1500,-0.05874863,-0.04824176,-0.0408489,113.188290800124
5.564,1500,0.06025137,-0.00924176,0.0131511,113.188290800124
5.574,1500,0.02925137,-0.05924176,-0.0198489,113.188290800124
5.583,1500,-0.06874863,-0.00824176,0.0631511,113.188290800124
5.593,1500,-0.07474863,-0.06224176,0.0111511,113.188290800124
5.603,1500,0.09225137,0.03475824,0.1771511,113.188290800124
5.613,1500,-0.02374863,-0.04224176,-0.0138489,113.188290800124
5.623,1500,-0.10174863,-0.11424176,-0.0478489,113.188290800124
5.633,1500,0.01925137,-0.03824176,0.0311511,113.188290800124
5.643,1500,-0.00774863,-0.06924176,-0.0208489,113.188290800124
5.653,1500,0.03325137,-0.00224176,0.0251511,113.188290800124
5.663,1500,-0.07274863,-0.07824176,-0.0318489,113.188290800124
5.674,1500,0.00125137,-0.06024176,0.0241511,113.188290800124
5.684,1500,-0.02274863,-0.06024176,0.0101511,113.188290800124
5.694,1500,-0.01774863,-0.06324176,0.0171511,113.188290800124
5.703,1500,-0.05974863,-0.07024176,0.0111511,113.188290800124
5.713,1500,0.01625137,-0.05424176,0.0081511,113.188290800124
5.723,1500,-0.01574863,-0.04924176,0.0551511,113.188290800124
5.733,1500,-0.03174863,-0.05224176,0.0221511,113.188290800124
5.743,1500,-0.03574863,-0.04324176,-0.0068489,113.188290800124
5.753,1500,0.00825137,-0.04724176,-0.0028489,113.188290800124
5.763,1500,-0.01374863,-0.03524176,-0.0068489,113.188290800124
5.773,1500,0.01225137,-0.04324176,-0.0038489,113.188290800124
5.783,1500,-0.05474863,-0.06524176,0.0031511,113.188290800124
5.793,1500,-0.05174863,-0.06424176,0.0121511,113.188290800124
5.803,1500,-0.04374863,-0.07824176,-0.0038489,77.8899196089303
5.813,1500,-0.01574863,-0.08124176,0.0041511,77.8899196089303
5.823,1500,-0.01774863,-0.03424176,0.0031511,77.8899196089303
5.833,1500,-0.00274863,-0.10624176,0.0201511,77.8899196089303
5.843,1500,-0.00674863,-0.19224176,-0.0108489,77.8899196089303
5.853,1500,-0.02674863,-0.17924176,-0.0128489,77.8899196089303
5.864,1500,-0.03074863,-0.17724176,0.0321511,77.8899196089303
5.874,1500,-0.00174863,-0.13124176,0.0411511,77.8899196089303
5.884,1500,-0.03374863,-0.06624176,-0.0038489,77.8899196089303
5.894,1500,-0.09074863,-0.09224176,0.0001511,77.8899196089303
5.904,1500,-0.07774863,-0.06024176,-0.0078489,77.8899196089303
5.913,1500,-0.06774863,-0.05424176,-0.0058489,77.8899196089303
5.923,1500,-0.04974863,-0.04924176,0.0821511,77.8899196089303
5.933,1500,-0.08374863,-0.02824176,-0.0188489,77.8899196089303
5.943,1500,0.06425137,0.01375824,0.0051511,77.8899196089303
5.953,1500,0.00925137,-0.02924176,-0.0438489,77.8899196089303
5.963,1500,0.04425137,0.00775824,0.0061511,77.8899196089303
5.974,1500,0.05725137,0.01175824,0.0781511,77.8899196089303
5.984,1500,0.06525137,-0.00224176,0.0161511,77.8899196089303
5.994,1500,-0.06674863,-0.04824176,-0.0468489,77.8899196089303
6.004,1500,0.01525137,-0.01824176,0.0261511,77.8899196089303
6.014,1500,-0.03574863,-0.01524176,-0.0348489,77.8899196089303
6.024,1500,0.01425137,-0.02124176,0.0031511,77.8899196089303
6.034,1500,0.02625137,0.00775824,0.0281511,77.8899196089303
6.044,1500,0.08725137,0.06575824,0.0971511,77.8899196089303
6.054,1500,0.02325137,-0.00624176,-0.0138489,77.8899196089303
6.064,1500,-0.19674863,-0.04124176,-0.0348489,77.8899196089303
6.074,1500,0.02925137,-0.03324176,-0.0998489,77.8899196089303
6.084,1500,-0.06474863,-0.02124176,0.0021511,77.8899196089303
6.093,1500,0.03625137,-0.00324176,0.0271511,77.8899196089303
6.103,1500,0.02525137,-0.00124176,0.0221511,77.8899196089303
6.113,1500,0.00225137,-0.02024176,-0.0168489,77.8899196089303
6.123,1500,0.01025137,-0.00924176,0.0261511,77.8899196089303
6.134,1500,-0.06174863,-0.02524176,-0.0028489,77.8899196089303
6.144,1500,-0.08974863,-0.05424176,-0.0558489,77.8899196089303
6.154,1500,-0.06574863,-0.00624176,-0.0198489,77.8899196089303
6.164,1500,0.05925137,0.02075824,-0.0478489,77.8899196089303
6.174,1500,0.07825137,0.00075824,-0.0378489,77.8899196089303
6.184,1500,0.07825137,0.01975824,0.0301511,77.8899196089303
6.194,1500,0.00525137,-0.00024176,0.0961511,77.8899196089303
6.204,1500,-0.05374863,-0.01124176,-0.0048489,77.8899196089303
6.214,1500,0.07225137,-0.00424176,0.0081511,77.8899196089303
6.224,1500,0.05125137,-0.03324176,0.0271511,77.8899196089303
6.234,1500,-0.04474863,-0.04324176,-0.0208489,77.8899196089303
6.244,1500,-0.03374863,-0.02324176,-0.0028489,77.8899196089303
6.254,1500,-0.09774863,-0.05224176,-0.0738489,77.8899196089303
6.264,1500,-0.00174863,0.00475824,-0.0108489,77.8899196089303
6.274,1500,-0.00874863,-0.01224176,-0.0048489,77.8899196089303
6.284,1500,0.14125137,-0.02724176,0.0241511,77.8899196089303
6.294,1500,0.03325137,-0.01224176,0.1311511,77.8899196089303
6.304,1500,0.12725137,0.00775824,0.0771511,77.8899196089303
6.314,1500,-0.01874863,0.00875824,0.0721511,117.809964219369
6.324,1500,0.09825137,-0.01724176,0.0051511,117.809964219369
6.334,1500,0.00625137,-0.01224176,-0.0138489,117.809964219369
6.344,1500,0.06525137,-0.03324176,-0.0118489,117.809964219369
6.354,1500,-0.08274863,-0.02024176,0.0761511,117.809964219369
6.364,1500,-0.13674863,0.04475824,0.1141511,117.809964219369
6.374,1500,0.09225137,0.02075824,0.1291511,117.809964219369
6.384,1500,0.03125137,-0.02524176,0.0461511,117.809964219369
6.394,1500,0.07725137,0.01175824,0.0961511,117.809964219369
6.404,1500,0.12625137,-0.00524176,-0.0688489,117.809964219369
6.414,1500,-0.14174863,-0.04524176,-0.0508489,117.809964219369
6.424,1500,0.32825137,0.12275824,0.1101511,117.809964219369
6.434,1500,-0.25074863,-0.07724176,-0.1368489,117.809964219369
6.444,1500,0.23025137,0.04775824,-0.0278489,117.809964219369
6.454,1500,0.00425137,0.10275824,0.0991511,117.809964219369
6.464,1500,0.12725137,0.09575824,0.0201511,117.809964219369
6.474,1500,0.10025137,0.05475824,-0.1288489,117.809964219369
6.484,1500,-0.09074863,0.04675824,-0.0028489,117.809964219369
6.493,1500,0.08425137,0.05875824,-0.0148489,117.809964219369
6.503,1500,0.11925137,0.07975824,-0.1128489,117.809964219369
6.513,1500,0.07325137,0.06575824,-0.0498489,117.809964219369
6.523,1500,0.05625137,0.03475824,0.0051511,117.809964219369
6.533,1500,0.03125137,0.02775824,-0.0138489,117.809964219369
6.543,1500,-0.04874863,0.02475824,-0.0238489,117.809964219369
6.554,1500,-0.01074863,0.02375824,-0.0478489,117.809964219369
6.564,1500,0.05225137,0.02975824,0.0301511,117.809964219369
6.574,1500,-0.00774863,0.02075824,0.0231511,117.809964219369
6.584,1500,0.08425137,-0.02824176,-0.0468489,117.809964219369
6.594,1500,0.02325137,-0.02224176,-0.0098489,117.809964219369
6.604,1500,-0.12174863,-0.01224176,-0.0058489,117.809964219369
6.614,1500,-0.00874863,-0.00024176,-0.0078489,117.809964219369
6.624,1500,-0.08774863,-0.01524176,0.0321511,117.809964219369
6.634,1500,0.00525137,0.00675824,0.0191511,117.809964219369
6.644,1500,-0.06974863,-0.00324176,0.0741511,117.809964219369
6.654,1500,0.00125137,-0.00724176,0.0241511,117.809964219369
6.664,1500,-0.07974863,-0.00224176,0.0791511,117.809964219369
6.674,1500,-0.05874863,-0.00424176,0.0211511,117.809964219369
6.684,1500,0.09625137,0.03475824,0.1201511,117.809964219369
6.694,1500,0.00925137,-0.00624176,0.0521511,117.809964219369
6.704,1500,0.04025137,0.01975824,0.0811511,117.809964219369
6.714,1500,0.05425137,-0.00724176,0.0321511,117.809964219369
6.723,1500,0.01925137,0.00475824,0.0931511,117.809964219369
6.733,1500,-0.04874863,-0.00524176,0.0311511,117.809964219369
6.743,1500,0.01025137,0.00175824,0.0661511,117.809964219369
6.754,1500,0.00325137,-0.00224176,-0.0008489,117.809964219369
6.764,1500,0.04225137,-0.04524176,-0.0508489,117.809964219369
6.774,1500,0.02525137,0.00975824,0.0091511,117.809964219369
6.783,1500,-0.09174863,-0.00124176,0.0451511,117.809964219369
6.793,1500,0.04625137,-0.00224176,0.0081511,117.809964219369
6.804,1500,-0.03274863,0.01675824,0.0991511,117.809964219369
6.814,1500,-0.11074863,-0.01724176,0.0011511,117.809964219369
6.824,1500,0.08225137,-0.01524176,-0.0408489,117.809964219369
6.834,1500,-0.01374863,-0.00624176,-0.0058489,67.800542101638
6.844,1500,-0.01774863,-0.04724176,-0.0638489,67.800542101638
6.854,1500,-0.11474863,-0.01324176,-0.0308489,67.800542101638
6.864,1500,0.00025137,-0.03224176,-0.0528489,67.800542101638
6.874,1500,-0.08574863,-0.02624176,0.0031511,67.800542101638
6.884,1500,-0.00574863,-0.00224176,0.0331511,67.800542101638
6.894,1500,-0.06174863,-0.02224176,0.0171511,67.800542101638
6.904,1500,0.00725137,-0.00324176,0.0021511,67.800542101638
6.914,1500,0.11025137,0.04175824,0.0551511,67.800542101638
6.924,1500,0.00725137,-0.04724176,-0.0418489,67.800542101638
6.933,1500,0.12725137,0.02875824,0.0731511,67.800542101638
6.943,1500,-0.09874863,-0.05624176,-0.0378489,67.800542101638
6.953,1500,-0.00674863,-0.00224176,0.0201511,67.800542101638
6.964,1500,0.00625137,-0.02124176,-0.0328489,67.800542101638
6.974,1500,0.03025137,-0.03224176,-0.0668489,67.800542101638
6.984,1500,0.00225137,-0.03524176,-0.0378489,67.800542101638
6.994,1500,-0.02974863,-0.03724176,-0.0318489,67.800542101638
7.004,1500,0.00225137,0.00675824,0.0191511,67.800542101638
7.014,1500,-0.08474863,-0.02524176,-0.0128489,67.800542101638
7.024,1500,-0.05674863,-0.01524176,-0.0018489,67.800542101638
7.034,1500,0.00925137,0.00675824,0.0371511,67.800542101638
7.044,1500,-0.01374863,-0.00624176,0.0301511,67.800542101638
7.054,1500,0.04725137,-0.02724176,-0.0368489,67.800542101638
7.064,1500,-0.01274863,-0.02024176,0.0091511,67.800542101638
7.074,1500,0.04125137,-0.01424176,-0.0568489,67.800542101638
7.084,1500,0.00325137,-0.02524176,-0.0288489,67.800542101638
7.094,1500,-0.03074863,-0.03424176,0.0051511,67.800542101638
7.104,1500,0.02725137,0.00075824,0.0181511,67.800542101638
7.113,1500,-0.00674863,-0.02224176,0.0491511,67.800542101638
7.123,1500,-0.05774863,-0.01224176,0.0191511,67.800542101638
7.133,1500,-0.00574863,0.00975824,0.0411511,67.800542101638
7.143,1500,-0.02374863,-0.00924176,-0.0198489,67.800542101638
7.154,1500,0.00325137,-0.01724176,-0.0008489,67.800542101638
7.164,1500,-0.07674863,-0.02024176,-0.0208489,67.800542101638
7.174,1500,0.00225137,-0.01524176,-0.0128489,67.800542101638
7.184,1500,-0.14474863,-0.05024176,-0.0258489,67.800542101638
7.194,1500,-0.01574863,-0.00624176,-0.0028489,67.800542101638
7.204,1500,-0.05274863,-0.02424176,-0.0248489,67.800542101638
7.214,1500,0.03325137,-0.02524176,-0.0208489,67.800542101638
7.224,1500,0.00725137,-0.01724176,0.0501511,67.800542101638
7.234,1500,0.00125137,0.00375824,0.0591511,67.800542101638
7.244,1500,0.11325137,0.00575824,0.0371511,67.800542101638
7.254,1500,-0.00774863,-0.01024176,0.0211511,67.800542101638
7.264,1500,0.06125137,-0.00124176,0.0301511,67.800542101638
7.273,1500,0.00025137,-0.00824176,0.0251511,67.800542101638
7.283,1500,0.03425137,-0.00624176,0.0041511,67.800542101638
7.294,1500,-0.00674863,-0.02324176,-0.0008489,67.800542101638
7.304,1500,-0.00474863,-0.02824176,-0.0238489,67.800542101638
7.314,1500,-0.03274863,-0.00324176,0.0251511,67.800542101638
7.324,1500,-0.05374863,-0.02024176,0.0281511,67.800542101638
7.334,1500,-0.02574863,0.00575824,0.0551511,67.800542101638
7.344,1500,-0.03374863,-0.00524176,0.0981511,67.800542101638
7.354,1500,-0.01174863,-0.02124176,0.0071511,45.8816782508196
7.364,1500,0.06325137,-0.00724176,0.0421511,45.8816782508196
7.374,1500,0.01725137,-0.01824176,-0.0068489,45.8816782508196
7.384,1500,0.02625137,-0.01124176,0.0001511,45.8816782508196
7.394,1500,-0.02874863,-0.02824176,-0.0008489,45.8816782508196
7.404,1500,0.07025137,-0.02224176,-0.0528489,45.8816782508196
7.414,1500,0.01825137,-0.01624176,-0.0048489,45.8816782508196
7.424,1500,-0.01474863,-0.02524176,0.0021511,45.8816782508196
7.434,1500,0.00425137,-0.01424176,0.0041511,45.8816782508196
7.443,1500,0.01125137,-0.02024176,-0.0148489,45.8816782508196
7.454,1500,-0.05174863,-0.05224176,-0.0068489,45.8816782508196
7.465,1500,-0.01774863,0.00475824,0.1041511,45.8816782508196
7.474,1500,-0.02574863,-0.03024176,0.0101511,45.8816782508196
7.484,1500,0.01725137,0.03875824,0.1171511,45.8816782508196
7.494,1500,-0.03474863,0.00775824,0.0151511,45.8816782508196
7.504,1500,0.02825137,-0.04724176,-0.0718489,45.8816782508196
7.514,1500,0.00525137,0.00775824,-0.0238489,45.8816782508196
7.524,1500,0.03125137,-0.04624176,-0.1048489,45.8816782508196
7.534,1500,-0.18674863,-0.01124176,-0.0088489,45.8816782508196
7.544,1500,0.00525137,-0.01924176,-0.0388489,45.8816782508196
7.554,1500,0.00025137,-0.03624176,0.0041511,45.8816782508196
7.564,1500,0.01525137,-0.02724176,-0.0228489,45.8816782508196
7.574,1500,0.08025137,0.00075824,0.0361511,45.8816782508196
7.584,1500,0.04925137,-0.02924176,-0.0238489,45.8816782508196
7.594,1500,-0.01374863,-0.05324176,-0.0548489,45.8816782508196
7.604,1500,0.00725137,-0.01724176,0.0071511,45.8816782508196
7.614,1500,0.15625137,-0.01124176,-0.1058489,45.8816782508196
7.625,1500,0.04525137,-0.04624176,-0.0818489,45.8816782508196
7.634,1500,-0.05874863,-0.04224176,-0.0668489,45.8816782508196
7.644,1500,0.03425137,-0.01624176,-0.0168489,45.8816782508196
7.654,1500,-0.13374863,-0.05424176,-0.0108489,45.8816782508196
7.664,1500,-0.04474863,0.00175824,0.0561511,45.8816782508196
7.674,1500,-0.06874863,-0.01624176,0.1041511,45.8816782508196
7.684,1500,0.01025137,-0.02524176,0.0311511,45.8816782508196
7.694,1500,0.08925137,-0.01324176,-0.0078489,45.8816782508196
7.704,1500,0.05725137,-0.03224176,-0.0388489,45.8816782508196
7.714,1500,-0.02574863,-0.01824176,-0.0158489,45.8816782508196
7.724,1500,-0.05974863,-0.03624176,-0.0238489,45.8816782508196
7.734,1500,0.03325137,-0.05924176,-0.0878489,45.8816782508196
7.744,1500,0.08125137,0.00175824,0.0211511,45.8816782508196
7.754,1500,-0.04074863,-0.06124176,-0.0708489,45.8816782508196
7.764,1500,-0.05374863,0.00875824,0.0011511,45.8816782508196
7.774,1500,0.13625137,-0.02624176,-0.0398489,45.8816782508196
7.784,1500,-0.01174863,-0.00724176,-0.0168489,45.8816782508196
7.794,1500,0.02325137,-0.03824176,-0.0638489,45.8816782508196
7.803,1500,-0.06074863,-0.05224176,0.0161511,45.8816782508196
7.815,1500,0.02325137,-0.02424176,0.0151511,45.8816782508196
7.824,1500,-0.01574863,-0.02724176,-0.0198489,45.8816782508196
7.834,1500,0.06925137,-0.00124176,0.0521511,45.8816782508196
7.844,1500,0.03625137,0.00075824,0.0721511,45.8816782508196
7.854,1500,-0.02874863,-0.03624176,0.0021511,45.8816782508196
7.864,1500,-0.01574863,-0.06924176,-0.0958489,45.8816782508196
7.874,1500,-0.01874863,-0.01224176,0.0171511,49.9639710470178
7.884,1500,0.00825137,-0.00224176,0.1091511,49.9639710470178
7.894,1500,-0.16474863,-0.05124176,-0.0238489,49.9639710470178
7.904,1500,0.08225137,-0.06824176,-0.0878489,49.9639710470178
7.914,1500,0.12625137,0.01975824,0.0691511,49.9639710470178
7.924,1500,0.04025137,-0.06624176,-0.0528489,49.9639710470178
7.934,1500,-0.18574863,-0.06724176,-0.0098489,49.9639710470178
7.944,1500,-0.04474863,-0.05024176,0.0401511,49.9639710470178
7.954,1500,-0.03274863,-0.10424176,-0.0948489,49.9639710470178
7.964,1500,-0.02574863,-0.02924176,0.0071511,49.9639710470178
7.974,1500,0.00625137,-0.05024176,0.0011511,49.9639710470178
7.984,1500,-0.02674863,-0.03824176,-0.0278489,49.9639710470178
7.994,1500,-0.03574863,-0.02324176,-0.0268489,49.9639710470178
8.004,1500,0.08425137,-0.03324176,-0.0358489,49.9639710470178
8.015,1500,-0.02074863,-0.02324176,-0.0408489,49.9639710470178
8.024,1500,0.02825137,-0.04624176,-0.0328489,49.9639710470178
8.035,1500,0.10325137,-0.05124176,-0.0228489,49.9639710470178
8.045,1500,-0.04974863,0.01375824,0.0361511,49.9639710470178
8.054,1500,-0.02574863,0.00275824,0.0431511,49.9639710470178
8.064,1500,0.06425137,-0.00624176,0.0081511,49.9639710470178
8.074,1500,0.00325137,-0.04924176,-0.0198489,49.9639710470178
8.084,1500,0.02425137,-0.04824176,-0.0318489,49.9639710470178
8.094,1500,-0.08374863,-0.03824176,0.0031511,49.9639710470178
8.104,1500,0.09425137,0.01975824,0.1371511,49.9639710470178
8.115,1500,0.16225137,0.06175824,0.2221511,49.9639710470178
8.124,1500,-0.22574863,-0.06224176,-0.0528489,49.9639710470178
8.135,1500,0.03525137,-0.05424176,-0.0178489,49.9639710470178
8.145,1500,0.11725137,0.01075824,0.1451511,49.9639710470178
8.154,1500,-0.23174863,-0.08824176,-0.0568489,49.9639710470178
8.165,1500,0.10425137,-0.07024176,-0.0838489,49.9639710470178
8.175,1500,0.08225137,-0.00024176,0.1641511,49.9639710470178
8.185,1500,-0.20674863,-0.03924176,-0.0368489,49.9639710470178
8.195,1500,-0.06474863,-0.07724176,-0.1558489,49.9639710470178
8.205,1500,-0.01274863,-0.03424176,0.1121511,49.9639710470178
8.215,1500,-0.09074863,-0.07024176,-0.0478489,49.9639710470178
8.225,1500,-0.00774863,-0.03524176,0.0111511,49.9639710470178
8.234,1500,0.01225137,-0.04924176,-0.0018489,49.9639710470178
8.244,1500,0.02525137,-0.00524176,-0.0098489,49.9639710470178
8.254,1500,0.05625137,-0.00624176,-0.0448489,49.9639710470178
8.264,1500,-0.00774863,0.02875824,0.1241511,49.9639710470178
8.275,1500,-0.01774863,-0.02524176,0.0001511,49.9639710470178
8.284,1500,-0.33174863,-0.06524176,-0.0138489,49.9639710470178
8.294,1500,0.04525137,0.00975824,0.0381511,49.9639710470178
8.304,1500,0.01425137,-0.04824176,-0.0838489,49.9639710470178
8.314,1500,-0.10574863,-0.05224176,-0.1198489,49.9639710470178
8.324,1500,-0.08174863,0.01175824,-0.0318489,49.9639710470178
8.334,1500,-0.08374863,-0.04724176,-0.0798489,49.9639710470178
8.344,1500,-0.04474863,0.00475824,0.0581511,49.9639710470178
8.355,1500,0.17725137,0.01075824,0.0791511,49.9639710470178
8.365,1500,0.18925137,-0.01524176,-0.0128489,49.9639710470178
8.375,1500,0.12825137,0.00875824,0.0881511,49.9639710470178
8.384,1500,0.09425137,0.00575824,0.1511511,49.9639710470178
8.394,1500,-0.01074863,0.00075824,0.0941511,133.582923146348
8.404,1500,0.02425137,-0.01624176,-0.0148489,133.582923146348
8.414,1500,0.13825137,0.05775824,0.0931511,133.582923146348
8.424,1500,-0.05574863,0.02275824,0.1291511,133.582923146348
8.434,1500,0.01625137,-0.03724176,0.1321511,133.582923146348
8.445,1500,0.12625137,0.07475824,0.1071511,133.582923146348
8.455,1500,-0.07974863,0.00975824,0.0081511,133.582923146348
8.465,1500,0.05925137,0.02975824,-0.0058489,133.582923146348
8.475,1500,-0.04574863,-0.01724176,-0.0488489,133.582923146348
8.485,1500,0.02825137,0.03175824,0.0291511,133.582923146348
8.495,1500,-0.04474863,0.05775824,0.0041511,133.582923146348
8.505,1500,0.11125137,-0.00724176,0.0131511,133.582923146348
8.515,1500,-0.00474863,-0.01224176,0.0141511,133.582923146348
8.525,1500,0.00525137,0.01075824,-0.0128489,133.582923146348
8.534,1500,-0.05374863,-0.00324176,-0.0018489,133.582923146348
8.544,1500,-0.07874863,-0.00424176,-0.0348489,133.582923146348
8.554,1500,0.02625137,-0.01224176,0.0111511,133.582923146348
8.564,1500,-0.04174863,-0.01824176,-0.0218489,133.582923146348
8.575,1500,-0.02774863,-0.01624176,-0.0638489,133.582923146348
8.585,1500,0.00825137,-0.04124176,-0.0048489,133.582923146348
8.595,1500,-0.01474863,-0.02924176,0.0101511,133.582923146348
8.605,1500,-0.07774863,-0.01624176,-0.0178489,133.582923146348
8.615,1500,-0.10474863,-0.06424176,-0.0158489,133.582923146348
8.624,1500,0.08225137,-0.06024176,0.0161511,133.582923146348
8.635,1500,-0.03774863,-0.04224176,0.0021511,133.582923146348
8.645,1500,-0.11174863,-0.06224176,0.0311511,133.582923146348
8.655,1500,0.01525137,-0.02824176,0.0101511,133.582923146348
8.664,1500,-0.09274863,-0.07724176,-0.0048489,133.582923146348
8.674,1500,-0.08174863,-0.06424176,-0.0098489,133.582923146348
8.684,1500,-0.10474863,-0.04524176,0.0211511,133.582923146348
8.694,1500,0.02225137,-0.06524176,0.0001511,133.582923146348
8.704,1500,-0.03474863,-0.04524176,0.0051511,133.582923146348
8.714,1500,-0.05874863,-0.04424176,-0.0338489,133.582923146348
8.724,1500,-0.08674863,-0.08124176,0.0041511,133.582923146348
8.734,1500,-0.01574863,-0.08024176,-0.0028489,133.582923146348
8.744,1500,-0.02374863,-0.06624176,0.0131511,133.582923146348
8.754,1500,-0.07874863,-0.05524176,0.0221511,133.582923146348
8.764,1500,0.01425137,-0.03024176,-0.0078489,133.582923146348
8.774,1500,0.03925137,0.00775824,-0.0038489,133.582923146348
8.784,1500,-0.08574863,0.01375824,0.0041511,133.582923146348
8.794,1500,-0.00874863,0.03475824,-0.0048489,133.582923146348
8.804,1500,-0.01274863,0.01875824,-0.0478489,133.582923146348
8.814,1500,0.06725137,-0.00024176,-0.0358489,133.582923146348
8.824,1500,0.08625137,0.02275824,0.0001511,133.582923146348
8.834,1500,-0.02874863,0.05375824,-0.0148489,133.582923146348
8.844,1500,0.00025137,0.09975824,0.0111511,133.582923146348
8.854,1500,0.03825137,0.10975824,-0.0018489,133.582923146348
8.865,1500,0.11125137,0.17375824,0.0041511,133.582923146348
8.875,1500,0.02125137,0.12575824,0.0131511,133.582923146348
8.885,1500,0.06925137,0.11475824,-0.0048489,133.582923146348
8.895,1500,0.09625137,0.06175824,-0.0048489,133.582923146348
8.905,1500,0.02725137,0.05175824,-0.0048489,133.582923146348
8.915,1500,-0.01074863,0.04675824,0.0201511,186.742213183559
8.925,1500,-0.03474863,-0.01424176,-0.0978489,186.742213183559
8.935,1500,-0.00774863,0.05575824,-0.0018489,186.742213183559
8.945,1500,0.01325137,0.03675824,0.0081511,186.742213183559
8.955,1500,0.02525137,0.00375824,0.0091511,186.742213183559
8.965,1500,-0.05474863,0.01975824,0.0551511,186.742213183559
8.975,1500,-0.04874863,0.00675824,0.0051511,186.742213183559
8.985,1500,-0.05774863,0.01775824,-0.0098489,186.742213183559
8.994,1500,0.02525137,0.02275824,0.0291511,186.742213183559
9.004,1500,-0.00974863,-0.00024176,0.0241511,186.742213183559
9.014,1500,-0.00574863,0.02175824,0.0121511,186.742213183559
9.024,1500,0.00025137,0.01375824,0.0061511,186.742213183559
9.035,1500,-0.03074863,-0.00824176,-0.0408489,186.742213183559
9.045,1500,-0.01074863,0.00975824,0.0021511,186.742213183559
9.055,1500,-0.05174863,-0.00324176,-0.0038489,186.742213183559
9.064,1500,0.02025137,0.00375824,0.0001511,186.742213183559
9.074,1500,-0.01574863,0.01675824,0.0431511,186.742213183559
9.084,1500,0.00325137,-0.01524176,-0.0038489,186.742213183559
9.095,1500,0.01825137,0.01175824,0.0001511,186.742213183559
9.105,1500,0.03825137,0.03575824,0.0671511,186.742213183559
9.115,1500,-0.01074863,-0.00524176,-0.0178489,186.742213183559
9.125,1500,0.00725137,-0.01524176,-0.0148489,186.742213183559
9.135,1500,-0.02174863,-0.03124176,0.0181511,186.742213183559
9.145,1500,-0.04274863,-0.00324176,0.0141511,186.742213183559
9.155,1500,0.00225137,0.01075824,-0.0168489,186.742213183559
9.165,1500,-0.01774863,-0.04724176,-0.0048489,186.742213183559
9.175,1500,0.01725137,-0.03124176,-0.0218489,186.742213183559
9.185,1500,-0.06774863,-0.02824176,-0.0238489,186.742213183559
9.196,1500,0.00325137,-0.04124176,0.0211511,186.742213183559
9.205,1500,0.00725137,-0.00224176,0.0941511,186.742213183559
9.215,1500,-0.06774863,-0.08424176,0.0041511,186.742213183559
9.225,1500,-0.07574863,-0.17024176,-0.1538489,186.742213183559
9.234,1500,0.00725137,-0.02224176,0.0331511,186.742213183559
9.244,1500,0.19525137,0.01175824,0.1271511,186.742213183559
9.255,1500,-0.05774863,-0.07524176,-0.0268489,186.742213183559
9.265,1500,-0.15574863,-0.12224176,-0.0708489,186.742213183559
9.275,1500,0.05025137,-0.06924176,0.0611511,186.742213183559
9.284,1500,-0.03074863,-0.03424176,0.1271511,186.742213183559
9.294,1500,-0.02074863,-0.04724176,0.0231511,186.742213183559
9.305,1500,-0.10174863,-0.07924176,-0.0798489,186.742213183559
9.314,1500,-0.06674863,-0.08224176,0.0151511,186.742213183559
9.325,1500,-0.22674863,-0.05924176,0.0151511,186.742213183559
9.335,1500,-0.09574863,-0.02824176,0.0601511,186.742213183559
9.344,1500,0.00125137,-0.03624176,-0.0018489,186.742213183559
9.354,1500,-0.17974863,-0.05624176,-0.0038489,186.742213183559
9.365,1500,-0.16774863,0.05975824,-0.0168489,186.742213183559
9.374,1500,0.27925137,0.12975824,0.0061511,186.742213183559
9.385,1500,0.05725137,-0.01024176,-0.0818489,186.742213183559
9.394,1500,0.00725137,0.10175824,0.1211511,186.742213183559
9.404,1500,-0.05074863,0.10575824,-0.0078489,186.742213183559
9.415,1500,0.05625137,0.08975824,0.0431511,186.742213183559
9.424,1500,-0.08374863,0.10875824,0.0511511,186.742213183559
9.435,1500,0.07625137,0.10675824,-0.1018489,189.947756858687
9.445,1500,-0.22074863,0.02875824,-0.0228489,189.947756858687
9.454,1500,0.23125137,0.18975824,0.1081511,189.947756858687
9.465,1500,0.12425137,0.13475824,0.0731511,189.947756858687
9.475,1500,0.06725137,0.03275824,-0.0158489,189.947756858687
9.484,1500,0.17225137,0.03975824,0.0041511,189.947756858687
9.494,1500,0.16225137,0.06275824,-0.0208489,189.947756858687
9.504,1500,-0.07974863,0.00875824,-0.0538489,189.947756858687
9.514,1500,-0.00274863,0.04575824,-0.0778489,189.947756858687
9.525,1500,0.03625137,0.03875824,-0.0448489,189.947756858687
9.535,1500,-0.06274863,0.00875824,-0.0698489,189.947756858687
9.544,1500,-0.05374863,0.00675824,0.0051511,189.947756858687
9.555,1500,-0.08974863,-0.06824176,-0.0788489,189.947756858687
9.564,1500,-0.05374863,-0.01224176,-0.0658489,189.947756858687
9.575,1500,0.13625137,0.06675824,-0.0918489,189.947756858687
9.584,1500,-0.03974863,-0.03524176,-0.1548489,189.947756858687
9.594,1500,0.16325137,0.08675824,0.1231511,189.947756858687
9.605,1500,0.34625137,0.19475824,0.1831511,189.947756858687
9.615,1500,0.35925137,0.01675824,-0.0188489,189.947756858687
9.625,1500,0.06825137,-0.06124176,0.0341511,189.947756858687
9.634,1500,0.07325137,0.09875824,0.2851511,189.947756858687
9.645,1500,-0.07674863,-0.00424176,0.1081511,189.947756858687
9.655,1500,0.18825137,-0.00224176,0.1321511,189.947756858687
9.665,1500,-0.01974863,0.05075824,0.1171511,189.947756858687
9.675,1500,-0.25974863,-0.06624176,-0.1808489,189.947756858687
9.685,1500,-0.31774863,-0.03324176,-0.0958489,189.947756858687
9.695,1500,-0.01974863,-0.01324176,0.0251511,189.947756858687
9.705,1500,-0.12874863,-0.00424176,-0.0448489,189.947756858687
9.715,1500,-0.06974863,-0.04024176,-0.1198489,189.947756858687
9.725,1500,-0.13274863,-0.05424176,-0.0858489,189.947756858687
9.735,1500,0.02525137,-0.00724176,0.0101511,189.947756858687
9.745,1500,-0.02374863,0.00975824,-0.0168489,189.947756858687
9.755,1500,-0.15974863,-0.04024176,-0.1788489,189.947756858687
9.764,1500,-0.19574863,-0.02124176,-0.1638489,189.947756858687
9.775,1500,-0.09174863,-0.03224176,-0.1808489,189.947756858687
9.784,1500,-0.20074863,-0.06824176,-0.2298489,189.947756858687
9.795,1500,0.06625137,0.02275824,-0.1528489,189.947756858687
9.804,1500,0.17525137,0.00775824,-0.1138489,189.947756858687
9.815,1500,-0.03174863,-0.04424176,-0.1008489,189.947756858687
9.825,1500,-0.01074863,-0.01524176,-0.0968489,189.947756858687
9.835,1500,0.11625137,0.05875824,-0.0008489,189.947756858687
9.845,1500,0.17125137,0.01775824,0.0411511,189.947756858687
9.856,1500,0.00725137,0.10475824,0.1661511,189.947756858687
9.866,1500,-0.02874863,0.13075824,0.2071511,189.947756858687
9.875,1500,-0.18974863,0.01175824,-0.1478489,189.947756858687
9.885,1500,-0.02474863,0.07175824,-0.1308489,189.947756858687
9.895,1500,-0.04374863,0.12275824,0.1171511,189.947756858687
9.905,1500,0.10825137,0.16875824,0.0581511,189.947756858687
9.915,1500,0.17325137,0.12175824,-0.0748489,189.947756858687
9.925,1500,0.13425137,0.13475824,-0.0168489,189.947756858687
9.934,1500,-0.01774863,0.10875824,-0.0568489,189.947756858687
9.945,1500,0.06825137,0.11775824,-0.0358489,189.947756858687
9.955,1500,0.09325137,0.10275824,0.0031511,130.63831908622
9.965,1500,0.05725137,0.07475824,-0.0138489,130.63831908622
9.975,1500,0.05325137,0.07275824,-0.0058489,130.63831908622
9.984,1500,0.03325137,0.05575824,-0.0058489,130.63831908622
9.995,1500,0.00525137,0.02675824,-0.0028489,130.63831908622
10.005,1500,0.00525137,0.02175824,0.0001511,130.63831908622
10.015,1500,0.01225137,0.02075824,-0.0028489,130.63831908622
10.025,1500,-0.01174863,0.01075824,0.0001511,130.63831908622
10.035,1500,-0.00374863,0.00575824,0.0051511,130.63831908622
10.045,1500,0.01425137,0.01075824,0.0001511,130.63831908622
10.055,1500,0.01025137,0.01275824,-0.0008489,130.63831908622
10.065,1500,0.00925137,-0.00024176,-0.0018489,130.63831908622
10.075,1500,0.01725137,0.00475824,-0.0048489,130.63831908622
10.085,1500,0.00825137,0.00675824,-0.0018489,130.63831908622
10.095,1500,-0.00074863,0.00475824,-0.0048489,130.63831908622
10.105,1500,0.01425137,0.00475824,0.0041511,130.63831908622
10.115,1500,0.00025137,0.00575824,-0.0008489,130.63831908622
10.125,1500,-0.00474863,0.00175824,-0.0068489,130.63831908622
10.135,1500,-0.00074863,0.00075824,-0.0028489,130.63831908622
10.145,1500,0.00025137,0.00375824,0.0001511,130.63831908622
10.155,1500,0.00225137,0.00175824,0.0021511,130.63831908622
10.166,1500,0.00725137,0.00775824,0.0041511,130.63831908622
10.176,1500,0.00025137,0.00975824,-0.0038489,130.63831908622
10.185,1500,0.00525137,0.00075824,0.0011511,130.63831908622
10.195,1500,0.01025137,-0.00324176,0.0021511,130.63831908622
10.205,1500,0.00525137,0.00475824,-0.0048489,130.63831908622
10.215,1500,-0.00074863,0.00775824,-0.0008489,130.63831908622
10.225,1500,-0.00274863,0.00075824,-0.0008489,130.63831908622
10.235,1500,0.00025137,-0.00124176,-0.0068489,130.63831908622
10.245,1500,0.00125137,0.00275824,-0.0008489,130.63831908622
10.255,1500,-0.00174863,0.00075824,-0.0078489,130.63831908622
10.265,1500,0.00425137,-0.00024176,0.0031511,130.63831908622
10.276,1500,0.00825137,0.00675824,0.0081511,130.63831908622
10.286,1500,0.00325137,0.00475824,0.0021511,130.63831908622
10.296,1500,0.00425137,0.00375824,0.0031511,130.63831908622
10.306,1500,-0.00074863,0.00575824,-0.0088489,130.63831908622
10.315,1500,-0.00074863,0.00075824,-0.0018489,130.63831908622
10.325,1500,0.00225137,0.00075824,-0.0048489,130.63831908622
10.335,1500,0.00025137,0.00275824,-0.0038489,130.63831908622
10.345,1500,0.00325137,0.00475824,-0.0048489,130.63831908622
10.356,1500,-0.00074863,-0.00024176,0.0001511,130.63831908622
10.365,1500,-0.00074863,0.00275824,-0.0028489,130.63831908622
10.375,1500,0.00225137,0.00275824,-0.0008489,130.63831908622
10.386,1500,0.00525137,-0.00024176,0.0001511,130.63831908622
10.395,1500,0.00525137,0.00175824,0.0001511,130.63831908622
10.405,1500,0.00025137,0.00875824,-0.0058489,130.63831908622
10.415,1500,0.00025137,0.00475824,0.0001511,130.63831908622
10.425,1500,0.00825137,0.00175824,-0.0018489,130.63831908622
10.435,1500,0.00625137,0.00475824,-0.0038489,130.63831908622
10.446,1500,0.00825137,0.00575824,0.0001511,130.63831908622
10.456,1500,0.00225137,0.00275824,0.0051511,130.63831908622
10.466,1500,0.00425137,0.00175824,0.0021511,130.63831908622
10.475,1500,0.00225137,0.00075824,-0.0018489,0
10.485,1500,-0.00274863,0.00475824,-0.0058489,0
10.495,1500,-0.00074863,0.00175824,-0.0008489,0
10.505,1500,0.00625137,0.00275824,-0.0028489,0
10.516,1500,-0.00074863,0.00575824,-0.0008489,0
10.526,1500,-0.00174863,0.00175824,0.0001511,0
10.536,1500,0.00025137,0.00275824,-0.0028489,0
10.545,1500,0.00325137,0.00275824,0.0001511,0
10.555,1500,0.00325137,-0.00124176,0.0001511,0
10.564,1500,0.00025137,0.00275824,-0.0008489,0
10.575,1500,0.00525137,0.00175824,0.0021511,0
10.585,1500,-0.00074863,-0.00124176,0.0011511,0
10.595,1500,-0.00274863,-0.00024176,0.0001511,0
10.605,1500,0.00325137,0.00475824,0.0011511,0
10.615,1500,0.00025137,0.00475824,0.0061511,0
10.625,1500,0.00225137,-0.00024176,-0.0008489,0
10.635,1500,-0.00274863,0.00875824,0.0011511,0
10.645,1500,0.00325137,0.00375824,-0.0018489,0
10.656,1500,0.00625137,-0.00324176,0.0001511,0
10.666,1500,0.00725137,0.00375824,-0.0018489,0
10.676,1500,0.00325137,0.00675824,0.0011511,0
10.686,1500,0.00325137,-0.00024176,-0.0008489,0
10.696,1500,0.00425137,-0.00024176,0.0001511,0
10.706,1500,-0.00274863,0.00675824,-0.0008489,0
10.715,1500,-0.00374863,0.00275824,0.0001511,0
10.725,1500,-0.00174863,0.00075824,0.0021511,0
10.735,1500,0.00025137,0.00575824,-0.0028489,0
10.745,1500,-0.00074863,0.00275824,-0.0038489,0
10.755,1500,-0.00174863,0.00275824,0.0011511,0
10.765,1500,-0.00274863,0.00275824,0.0001511,0
10.775,1500,0.00625137,0.00275824,0.0011511,0
10.785,1500,0.00325137,0.00175824,-0.0028489,0
10.795,1500,0.00725137,-0.00024176,-0.0038489,0
10.805,1500,0.00625137,0.00275824,-0.0018489,0
10.816,1500,0.00725137,0.00075824,0.0021511,0
10.826,1500,0.01025137,0.00375824,-0.0028489,0
10.836,1500,0.00925137,0.00275824,-0.0008489,0
10.846,1500,-0.00374863,0.00475824,-0.0018489,0
10.856,1500,-0.00174863,0.00375824,0.0001511,0
10.865,1500,-0.00674863,0.00275824,0.0001511,0
10.875,1500,-0.00274863,0.00275824,-0.0018489,0
10.885,1500,-0.00074863,-0.00024176,-0.0028489,0
10.895,1500,0.00125137,0.00375824,-0.0018489,0
10.905,1500,0.01225137,0.00175824,0.0061511,0
10.915,1500,0.00925137,-0.00124176,-0.0058489,0
10.925,1500,0.00925137,0.00475824,0.0001511,0
10.935,1500,0.00825137,0.00475824,0.0001511,0
10.945,1500,0.00825137,0.00175824,0.0021511,0
10.955,1500,0.00625137,0.00275824,0.0001511,0
10.965,1500,-0.00174863,0.00575824,-0.0008489,0
10.976,1500,-0.00574863,0.00275824,-0.0008489,0
10.986,1500,0.00125137,0.00175824,-0.0018489,0
10.996,1500,0.00225137,0.00475824,0.0001511,0
11.006,1500,0.00425137,0.00675824,-0.0018489,0
11.015,1500,0.00325137,0.00275824,-0.0028489,0
11.025,1500,0.00525137,0.00175824,-0.0008489,0
11.035,1500,0.00325137,0.00375824,-0.0018489,0
11.045,1500,0.01025137,0.00575824,-0.0038489,0
11.055,1500,0.00825137,0.00675824,-0.0028489,0
11.066,1500,0.00225137,0.00475824,-0.0018489,0
11.076,1500,0.00725137,0.00375824,-0.0018489,0
11.086,1500,-0.00474863,0.00075824,-0.0008489,0
11.096,1500,-0.00774863,0.00075824,-0.0058489,0
11.106,1500,0.00125137,-0.00024176,0.0041511,0
11.116,1500,-0.00974863,0.00375824,-0.0058489,0
11.126,1500,0.00125137,0.00475824,-0.0068489,0
11.135,1500,0.01025137,-0.00124176,-0.0038489,0
11.145,1500,0.00325137,0.00475824,-0.0018489,0
11.155,1500,0.00525137,0.00275824,-0.0018489,0
11.166,1500,0.00725137,0.00475824,-0.0048489,0
11.176,1500,0.00725137,0.00075824,0.0031511,0
11.186,1500,0.00525137,0.00275824,-0.0038489,0
11.196,1500,-0.00474863,0.00275824,-0.0008489,0
11.206,1500,-0.00574863,0.00475824,-0.0038489,0
11.215,1500,-0.00274863,-0.00124176,0.0041511,0
11.225,1500,0.00025137,0.00375824,0.0001511,0
11.235,1500,0.00025137,0.00675824,-0.0048489,0
11.245,1500,-0.00074863,0.00475824,0.0001511,0
11.255,1500,0.00425137,0.00275824,0.0041511,0
11.265,1500,0.00525137,0.00075824,-0.0038489,0
11.276,1500,0.00625137,0.00475824,-0.0038489,0
11.286,1500,0.00825137,0.00475824,-0.0008489,0
11.296,1500,0.00925137,-0.00024176,0.0001511,0
11.306,1500,0.00525137,0.00275824,-0.0008489,0
11.316,1500,-0.00974863,0.00575824,-0.0028489,0
11.326,1500,-0.00274863,0.00075824,-0.0018489,0
11.336,1500,-0.00074863,-0.00024176,0.0001511,0
11.346,1500,-0.00074863,0.00275824,-0.0098489,0
11.356,1500,0.00125137,0.00775824,-0.0018489,0
11.366,1500,0.00225137,0.00075824,0.0031511,0
11.376,1500,0.00725137,0.00075824,-0.0008489,0
11.385,1500,0.00525137,-0.00124176,0.0001511,0
11.396,1500,0.00325137,0.00575824,-0.0038489,0
11.405,1500,0.00125137,-0.00124176,0.0021511,0
11.415,1500,0.00225137,0.00075824,-0.0058489,0
11.425,1500,-0.00074863,0.00275824,0.0031511,0
11.436,1500,0.00025137,0.00275824,-0.0018489,0
11.445,1500,0.00025137,0.00475824,0.0011511,0
11.455,1500,-0.00674863,0.00075824,0.0031511,0
11.465,1500,0.00225137,0.00875824,-0.0008489,0
11.476,1500,-0.00274863,0.00475824,0.0011511,0
11.485,1500,0.00325137,0.00375824,-0.0028489,0
11.495,1500,0.00425137,0.00075824,0.0021511,0
11.506,1500,0.00425137,0.00475824,-0.0038489,0
11.515,1500,0.00425137,0.00475824,-0.0008489,0
11.525,1500,0.00825137,-0.00224176,-0.0048489,0
11.535,1500,0.00625137,0.00275824,-0.0008489,0
11.545,1500,0.00025137,0.00475824,-0.0008489,0
11.556,1500,0.00025137,0.00175824,0.0001511,0
11.565,1500,0.00125137,0.00175824,-0.0018489,0
11.575,1500,-0.00274863,0.00175824,-0.0018489,0
11.586,1500,-0.00774863,0.00775824,-0.0028489,0
11.595,1500,-0.00274863,0.00075824,-0.0018489,0
11.605,1500,0.00525137,0.00475824,-0.0058489,0
11.615,1500,0.00225137,0.00175824,-0.0018489,0
11.625,1500,0.00325137,0.00275824,-0.0028489,0
11.636,1500,0.00725137,0.00275824,-0.0018489,0
11.645,1500,0.00425137,0.00375824,0.0061511,0
11.655,1500,0.00325137,0.00375824,-0.0068489,0
11.666,1500,0.00525137,0.00175824,-0.0048489,0
11.675,1500,0.00325137,0.00675824,-0.0008489,0
11.686,1500,0.00125137,0.00275824,0.0011511,0
11.695,1500,0.00525137,-0.00024176,0.0021511,0
11.705,1500,-0.00774863,0.00575824,0.0031511,0
11.716,1500,0.00125137,0.00275824,0.0041511,0
11.725,1500,-0.00174863,-0.00024176,0.0031511,0
11.735,1500,0.00325137,0.00375824,-0.0018489,0
11.746,1500,0.00625137,0.00475824,-0.0108489,0
11.755,1500,0.00725137,0.00075824,-0.0038489,0
11.765,1500,0.00625137,0.00075824,0.0061511,0
11.776,1500,0.00725137,0.01175824,-0.0028489,0
11.785,1500,-0.00274863,0.00275824,0.0001511,0
11.796,1500,0.00225137,-0.00224176,-0.0008489,0
11.805,1500,-0.00074863,0.00975824,0.0011511,0
11.815,1500,0.00025137,-0.00124176,0.0011511,0
11.826,1500,0.00025137,0.00175824,0.0001511,0
11.835,1500,0.00025137,0.00875824,-0.0058489,0
11.845,1500,0.00225137,-0.00224176,-0.0028489,0
11.856,1500,0.00025137,0.00775824,-0.0058489,0
11.865,1500,0.00725137,0.00475824,-0.0038489,0
11.876,1500,0.00925137,0.00475824,-0.0018489,0
11.885,1500,0.00625137,0.00375824,0.0011511,0
11.895,1500,0.00625137,0.00275824,0.0021511,0
11.906,1500,-0.00074863,0.00575824,-0.0028489,0
11.915,1500,0.00225137,0.00375824,0.0031511,0
11.925,1500,-0.00074863,-0.00424176,0.0021511,0
11.936,1500,0.00025137,0.00475824,-0.0068489,0
11.945,1500,0.00025137,0.00475824,-0.0028489,0
11.956,1500,0.00025137,-0.00224176,0.0021511,0
11.966,1500,-0.00074863,0.00575824,-0.0028489,0
11.975,1500,0.00525137,0.00075824,0.0041511,0
11.986,1500,0.00525137,0.00075824,0.0011511,0
11.995,1500,0.00725137,0.00275824,0.0001511,0
12.005,1500,0.00425137,0.00875824,-0.0058489,0
12.016,1500,0.00225137,0.00275824,0.0011511,0
12.025,1500,0.00625137,-0.00124176,0.0041511,0
12.036,1500,-0.00574863,0.00475824,0.0021511,0
12.046,1500,-0.00074863,0.00675824,0.0001511,0
12.055,1500,-0.00274863,0.00375824,-0.0008489,0
12.066,1500,0.00625137,0.00375824,-0.0008489,0
12.075,1500,0.00125137,0.00275824,-0.0068489,0
12.085,1500,0.00825137,0.00075824,-0.0038489,0
12.096,1500,0.00725137,0.00175824,0.0011511,0
12.105,1500,0.00625137,0.00675824,-0.0048489,0
12.116,1500,0.00625137,0.00175824,0.0021511,0
12.126,1500,0.00325137,0.00075824,-0.0008489,0
12.135,1500,0.00525137,0.00475824,0.0051511,0
12.146,1500,-0.00174863,0.00075824,-0.0028489,0
12.155,1500,-0.00074863,0.00175824,0.0031511,0
12.165,1500,-0.00174863,0.00475824,-0.0068489,0
12.176,1500,-0.00074863,0.00875824,-0.0018489,0
12.185,1500,0.00125137,-0.00124176,0.0001511,0
12.196,1500,-0.00074863,0.00575824,-0.0018489,0
12.206,1500,0.00525137,0.00375824,-0.0038489,0
12.215,1500,0.00525137,0.00275824,-0.0018489,0
12.226,1500,0.00425137,0.00275824,-0.0008489,0
12.235,1500,0.00525137,0.00375824,0.0021511,0
12.245,1500,0.00825137,0.00375824,0.0031511,0
12.256,1500,0.00425137,0.00375824,-0.0038489,0
12.265,1500,-0.00174863,0.00475824,0.0031511,0
12.276,1500,-0.00174863,0.00275824,0.0011511,0
12.286,1500,0.00225137,-0.00124176,-0.0018489,0
12.295,1500,-0.00374863,0.00275824,0.0001511,0
12.306,1500,0.00025137,0.00475824,-0.0058489,0
12.315,1500,0.00025137,0.00375824,-0.0008489,0
12.326,1500,0.00425137,0.00075824,-0.0038489,0
12.336,1500,0.00825137,0.00575824,0.0001511,0
12.345,1500,0.00625137,0.00375824,-0.0008489,0
12.356,1500,0.00625137,0.00175824,-0.0038489,0
12.366,1500,0.00825137,0.00175824,0.0011511,0
12.375,1500,0.00325137,0.00175824,-0.0058489,0
12.386,1500,-0.00274863,0.00275824,-0.0018489,0
12.396,1500,-0.00174863,-0.00324176,0.0041511,0
12.405,1500,-0.00274863,0.00275824,0.0021511,0
12.416,1500,0.00125137,0.00175824,0.0041511,0
12.425,1500,-0.00274863,0.00175824,-0.0038489,0
12.436,1500,0.00225137,0.00275824,-0.0018489,0
12.446,1500,0.00625137,0.00275824,-0.0008489,0
12.455,1500,0.00625137,0.00275824,-0.0068489,0
12.466,1500,0.00225137,0.01175824,-0.0068489,0
12.476,1500,0.00825137,0.00175824,0.0041511,0
12.485,1500,0.00525137,-0.00224176,0.0001511,0
12.496,1500,0.00025137,0.00375824,-0.0068489,0
12.506,1500,0.00325137,0.00575824,-0.0028489,0
12.515,1500,-0.00274863,-0.00324176,0.0031511,0
12.526,1500,-0.00074863,-0.00224176,0.0001511,0
12.535,1500,0.00025137,0.00975824,-0.0018489,0
12.546,1500,0.00125137,0.00275824,-0.0028489,0
12.556,1500,0.00125137,-0.00224176,-0.0038489,0
12.565,1500,0.00525137,0.00475824,0.0001511,0
12.576,1500,0.00625137,0.00375824,-0.0058489,0
12.586,1500,0.00225137,0.00375824,-0.0008489,0
12.595,1500,0.00725137,-0.00024176,-0.0078489,0
12.606,1500,0.00425137,0.00575824,-0.0088489,0
12.615,1500,-0.00074863,0.00375824,-0.0038489,0
12.626,1500,-0.00474863,0.00575824,-0.0038489,0
12.636,1500,0.00125137,0.00075824,0.0021511,0
12.646,1500,-0.00174863,0.00375824,-0.0008489,0
12.655,1500,-0.00174863,0.00475824,0.0031511,0
12.666,1500,0.00025137,0.00375824,-0.0018489,0
12.676,1500,0.00425137,0.00175824,-0.0008489,0
12.685,1500,0.00425137,0.00275824,-0.0068489,0
12.696,1500,0.00625137,0.00375824,-0.0008489,0
12.706,1500,0.00325137,0.00375824,0.0001511,0
12.716,1500,0.00725137,0.00375824,0.0031511,0
12.727,1500,0.00125137,0.00075824,0.0041511,0
12.736,1500,-0.00174863,0.00375824,-0.0078489,0
12.747,1500,0.00125137,0.00175824,-0.0008489,0
12.756,1500,-0.00474863,0.00275824,0.0001511,0
12.766,1500,-0.00474863,0.00075824,-0.0038489,0
12.776,1500,0.00425137,0.00475824,0.0041511,0
12.786,1500,0.00225137,0.00175824,-0.0018489,0
12.796,1500,-0.00074863,0.00375824,-0.0008489,0
12.805,1500,0.00725137,0.00775824,-0.0078489,0
12.816,1500,0.00625137,0.00575824,0.0041511,0
